gx,gy,gz,ax,ay,az,mx,my,mz
-1.0975609756097562,2.5609756097560976,-1.5853658536585367,0.0849609375,0.1728515625,1.01416015625,52.949999999999996,15.899999999999999,53.4
-0.1829268292682927,-0.12195121951219513,0.426829268292683,0.0810546875,0.171875,1.01513671875,52.949999999999996,15.6,53.4
-1.3414634146341464,0.3658536585365854,-1.2804878048780488,0.09716796875,0.16943359375,1.02001953125,52.949999999999996,15.149999999999999,53.699999999999996
-1.2195121951219514,1.1585365853658538,-0.853658536585366,0.09765625,0.15966796875,1.009765625,52.35,15.75,53.85
-0.6097560975609757,3.1707317073170733,0.06097560975609757,0.0771484375,0.17626953125,1.01806640625,53.25,15.6,53.4
1.524390243902439,1.1585365853658538,-1.707317073170732,0.087890625,0.17529296875,1.01806640625,53.25,15.149999999999999,53.699999999999996
0.3658536585365854,2.8658536585365857,-0.6707317073170732,0.08447265625,0.16748046875,1.0087890625,53.1,15.45,52.35
2.439024390243903,0.6097560975609757,-1.1585365853658538,0.072265625,0.17822265625,1.00244140625,52.35,15.45,55.35
-0.9146341463414634,1.6463414634146343,-1.1585365853658538,0.08154296875,0.1650390625,1.015625,53.25,15.149999999999999,52.949999999999996
1.2195121951219514,2.3170731707317076,1.8902439024390245,0.07763671875,0.1787109375,1.0126953125,53.55,16.8,54.0
1.4634146341463417,0.24390243902439027,-0.426829268292683,0.0791015625,0.1826171875,1.0126953125,53.1,16.5,54.3
0.6707317073170732,1.829268292682927,0.426829268292683,0.08447265625,0.1640625,1.0166015625,52.35,15.45,53.55
-0.30487804878048785,-0.9146341463414634,2.073170731707317,0.08154296875,0.171875,1.0224609375,53.4,14.7,53.85
2.0121951219512195,1.1585365853658538,0.1829268292682927,0.07666015625,0.17919921875,1.0205078125,53.1,15.75,54.6
-0.6707317073170732,3.048780487804878,0.6707317073170732,0.0849609375,0.16845703125,1.02197265625,52.5,15.899999999999999,52.65
0.24390243902439027,-1.3414634146341464,0.0,0.08056640625,0.16796875,1.00634765625,53.55,16.8,54.0
0.426829268292683,3.353658536585366,-1.0975609756097562,0.07958984375,0.166015625,1.01416015625,52.35,15.75,53.55
-0.5487804878048781,0.1829268292682927,-1.6463414634146343,0.06982421875,0.1552734375,1.00927734375,54.0,15.6,54.0
0.06097560975609757,1.707317073170732,0.6707317073170732,0.07275390625,0.17333984375,1.01123046875,53.85,15.0,54.9
-1.5853658536585367,1.707317073170732,0.30487804878048785,0.076171875,0.1796875,1.0185546875,52.949999999999996,14.85,53.699999999999996
-1.707317073170732,-0.3658536585365854,1.707317073170732,0.08349609375,0.1826171875,1.00390625,52.65,16.2,54.6
-1.402439024390244,0.7926829268292683,-0.426829268292683,0.076171875,0.17138671875,1.01806640625,53.1,15.75,54.3
-0.06097560975609757,0.0,0.48780487804878053,0.0830078125,0.1796875,1.017578125,53.4,15.45,54.6
1.8902439024390245,1.0365853658536586,0.426829268292683,0.07861328125,0.17333984375,1.0185546875,53.4,15.75,55.35
-0.426829268292683,-0.853658536585366,-0.7317073170731708,0.09326171875,0.1591796875,1.0146484375,54.15,15.0,54.3
0.30487804878048785,0.6707317073170732,-0.853658536585366,0.07421875,0.173828125,1.0205078125,51.9,16.2,54.6
-1.9512195121951221,0.1829268292682927,-0.6097560975609757,0.083984375,0.166015625,1.01416015625,51.75,15.149999999999999,53.699999999999996
-0.7317073170731708,3.231707317073171,-0.3658536585365854,0.08740234375,0.17822265625,1.0205078125,53.4,15.45,55.35
-0.24390243902439027,1.524390243902439,1.0365853658536586,0.07177734375,0.16455078125,1.00634765625,52.35,17.25,55.35
0.12195121951219513,0.6707317073170732,-1.829268292682927,0.08056640625,0.16015625,1.01953125,52.65,16.2,54.9
1.0975609756097562,0.426829268292683,-1.2195121951219514,0.07177734375,0.173828125,1.009765625,54.0,16.349999999999998,53.699999999999996
0.24390243902439027,0.5487804878048781,-1.2804878048780488,0.08154296875,0.18212890625,1.01513671875,52.35,15.45,54.9
1.4634146341463417,1.0365853658536586,0.853658536585366,0.0703125,0.16845703125,1.01171875,52.5,15.149999999999999,54.0
0.0,1.524390243902439,0.30487804878048785,0.07275390625,0.1748046875,1.01171875,53.1,16.2,54.9
1.524390243902439,3.5975609756097566,1.402439024390244,0.07958984375,0.17578125,1.01416015625,53.25,15.6,52.65
-0.9756097560975611,1.2195121951219514,-0.1829268292682927,0.080078125,0.16845703125,1.0126953125,53.1,14.7,54.3
-0.06097560975609757,0.9756097560975611,-3.414634146341464,0.08154296875,0.17041015625,1.01708984375,52.949999999999996,17.099999999999998,52.949999999999996
0.9146341463414634,2.987804878048781,-0.9146341463414634,0.0908203125,0.17236328125,1.0107421875,52.949999999999996,16.349999999999998,54.449999999999996
-1.2195121951219514,0.0,-1.402439024390244,0.06005859375,0.16455078125,1.03271484375,53.1,15.45,53.85
-2.9268292682926833,-0.1829268292682927,-3.353658536585366,0.0751953125,0.1669921875,1.009765625,54.3,15.6,53.4
0.30487804878048785,1.4634146341463417,1.6463414634146343,0.0869140625,0.171875,1.001953125,53.25,16.8,54.449999999999996
-1.0365853658536586,0.0,0.426829268292683,0.07275390625,0.173828125,1.005859375,52.949999999999996,14.85,52.949999999999996
-0.853658536585366,1.707317073170732,2.439024390243903,0.08056640625,0.17138671875,1.02587890625,52.199999999999996,15.899999999999999,53.4
-1.0365853658536586,1.1585365853658538,-1.0975609756097562,0.07763671875,0.17529296875,1.0283203125,55.5,16.349999999999998,54.75
-0.9756097560975611,0.6707317073170732,0.426829268292683,0.07373046875,0.17578125,1.01171875,51.9,16.2,53.55
-1.707317073170732,0.5487804878048781,1.707317073170732,0.091796875,0.16943359375,1.01904296875,53.25,15.899999999999999,55.199999999999996
-1.3414634146341464,0.1829268292682927,0.853658536585366,0.08544921875,0.1650390625,1.0263671875,53.25,15.149999999999999,54.449999999999996
0.6097560975609757,1.0975609756097562,0.853658536585366,0.08154296875,0.17236328125,1.01220703125,53.4,15.45,53.55
0.24390243902439027,-0.48780487804878053,0.7926829268292683,0.07275390625,0.171875,1.017578125,54.0,16.349999999999998,53.4
-0.7317073170731708,1.829268292682927,1.0365853658536586,0.07958984375,0.17236328125,1.0146484375,53.4,15.75,53.85
0.853658536585366,1.2804878048780488,0.5487804878048781,0.08740234375,0.18017578125,1.01123046875,51.6,15.75,53.55
-0.6707317073170732,-0.3658536585365854,2.073170731707317,0.07275390625,0.1708984375,1.01318359375,53.25,15.899999999999999,54.75
-1.1585365853658538,0.7926829268292683,-0.5487804878048781,0.0859375,0.17578125,1.00439453125,51.9,14.25,53.85
-1.524390243902439,1.2195121951219514,-0.7926829268292683,0.0751953125,0.17138671875,1.01220703125,53.1,15.45,53.85
0.853658536585366,1.2195121951219514,-1.524390243902439,0.07275390625,0.16748046875,1.00830078125,53.25,16.349999999999998,54.0
-0.5487804878048781,-0.12195121951219513,-0.24390243902439027,0.08447265625,0.18115234375,1.01123046875,52.65,16.2,54.6
-0.30487804878048785,0.7926829268292683,0.426829268292683,0.07666015625,0.16796875,1.005859375,53.25,14.399999999999999,54.75
-2.378048780487805,1.7682926829268295,1.524390243902439,0.087890625,0.17138671875,1.01708984375,52.949999999999996,16.349999999999998,54.0
1.2804878048780488,0.3658536585365854,-0.12195121951219513,0.0830078125,0.177734375,1.01513671875,52.65,15.45,54.3
-1.0365853658536586,2.5609756097560976,1.402439024390244,0.0888671875,0.1826171875,1.00927734375,53.1,15.0,53.1
-0.853658536585366,-1.3414634146341464,-0.06097560975609757,0.07763671875,0.16796875,1.00048828125,53.1,15.75,53.85
0.1829268292682927,2.1951219512195124,-1.7682926829268295,0.080078125,0.17724609375,1.013671875,54.15,15.45,53.1
-0.5487804878048781,2.1951219512195124,-0.48780487804878053,0.078125,0.1767578125,1.0107421875,54.0,16.349999999999998,54.449999999999996
0.30487804878048785,2.9268292682926833,-0.48780487804878053,0.1025390625,0.1611328125,1.0166015625,53.1,16.95,54.3
1.0365853658536586,0.48780487804878053,1.0975609756097562,0.09423828125,0.169921875,1.01708984375,52.35,15.75,53.1
0.426829268292683,2.1951219512195124,-1.5853658536585367,0.08984375,0.16845703125,1.01025390625,53.55,15.149999999999999,54.75
1.707317073170732,1.524390243902439,-1.7682926829268295,0.08837890625,0.162109375,1.015625,52.949999999999996,15.149999999999999,53.4
0.9756097560975611,1.8902439024390245,0.426829268292683,0.0771484375,0.16552734375,1.01806640625,53.25,15.6,53.699999999999996
1.707317073170732,1.524390243902439,2.1951219512195124,0.07666015625,0.16552734375,1.01025390625,52.35,15.0,53.1
-1.402439024390244,1.9512195121951221,2.7439024390243905,0.0703125,0.16748046875,1.01416015625,53.55,15.6,52.949999999999996
-1.2195121951219514,0.30487804878048785,0.30487804878048785,0.0693359375,0.173828125,1.009765625,53.25,14.399999999999999,54.449999999999996
-1.0975609756097562,1.3414634146341464,-1.707317073170732,0.0869140625,0.17041015625,1.01806640625,54.0,16.349999999999998,54.449999999999996
-0.5487804878048781,1.829268292682927,0.5487804878048781,0.09130859375,0.17431640625,1.0126953125,53.4,15.0,53.55
0.0,-0.12195121951219513,-0.06097560975609757,0.080078125,0.1640625,1.00390625,55.05,15.6,54.0
1.707317073170732,1.5853658536585367,-1.1585365853658538,0.078125,0.1708984375,1.0224609375,53.4,15.75,53.85
2.682926829268293,0.426829268292683,-1.829268292682927,0.0771484375,0.171875,1.01416015625,52.65,15.45,53.1
1.402439024390244,2.378048780487805,0.853658536585366,0.091796875,0.16259765625,1.02001953125,52.5,15.149999999999999,53.4
1.707317073170732,0.30487804878048785,1.9512195121951221,0.08984375,0.1806640625,0.9970703125,53.4,15.45,54.6
1.0365853658536586,0.9756097560975611,0.7926829268292683,0.08642578125,0.17529296875,1.02197265625,53.85,15.75,53.85
0.0,3.780487804878049,-0.6707317073170732,0.0869140625,0.1748046875,1.01513671875,52.5,15.149999999999999,54.0
-0.7926829268292683,1.402439024390244,-0.24390243902439027,0.0849609375,0.16943359375,1.00927734375,53.85,15.45,55.65
0.30487804878048785,0.0,1.402439024390244,0.07958984375,0.169921875,1.025390625,52.35,14.25,52.8
-1.707317073170732,1.0365853658536586,1.0975609756097562,0.087890625,0.1796875,1.01513671875,52.949999999999996,16.349999999999998,52.65
2.0121951219512195,0.24390243902439027,0.06097560975609757,0.080078125,0.17529296875,1.01220703125,53.55,14.85,53.4
0.0,0.6097560975609757,1.6463414634146343,0.08740234375,0.177734375,1.01318359375,52.65,16.5,54.6
-2.804878048780488,1.402439024390244,0.426829268292683,0.07861328125,0.169921875,1.0068359375,53.25,14.399999999999999,54.449999999999996
1.0365853658536586,0.06097560975609757,0.7317073170731708,0.072265625,0.18408203125,1.0087890625,53.55,16.349999999999998,54.0
-0.12195121951219513,1.2195121951219514,2.1341463414634148,0.06787109375,0.16845703125,1.01123046875,52.199999999999996,15.149999999999999,54.0
1.5853658536585367,0.6707317073170732,-0.9146341463414634,0.0771484375,0.173828125,1.02099609375,53.25,14.85,54.449999999999996
-0.9146341463414634,3.4756097560975614,-0.3658536585365854,0.08544921875,0.16748046875,1.0224609375,52.35,15.75,54.3
-1.8902439024390245,-1.524390243902439,0.1829268292682927,0.09423828125,0.1787109375,1.015625,52.199999999999996,14.85,53.4
0.853658536585366,2.073170731707317,1.2195121951219514,0.08642578125,0.166015625,1.00537109375,53.85,15.45,55.35
-1.1585365853658538,0.9146341463414634,0.12195121951219513,0.076171875,0.16455078125,1.0107421875,53.55,15.149999999999999,54.0
-0.24390243902439027,-0.1829268292682927,-0.12195121951219513,0.08544921875,0.169921875,1.0224609375,54.0,14.85,54.75
-0.6707317073170732,-0.3658536585365854,-0.12195121951219513,0.0927734375,0.15771484375,1.02197265625,52.35,13.049999999999999,53.85
0.1829268292682927,2.5,-1.524390243902439,0.0791015625,0.16357421875,1.013671875,54.0,15.899999999999999,54.449999999999996
-0.24390243902439027,-1.2804878048780488,0.0,0.07080078125,0.16748046875,1.0146484375,52.949999999999996,15.6,54.449999999999996
-1.6463414634146343,2.0121951219512195,-0.3658536585365854,0.07958984375,0.16943359375,1.0048828125,54.3,15.899999999999999,54.75
0.1829268292682927,1.9512195121951221,0.853658536585366,0.0908203125,0.16748046875,1.0029296875,53.4,15.0,53.55
0.426829268292683,-0.7317073170731708,0.426829268292683,0.07763671875,0.17529296875,1.00830078125,53.25,14.1,55.199999999999996
1.402439024390244,1.0365853658536586,-0.7317073170731708,0.09521484375,0.1796875,1.02685546875,54.15,16.5,54.6
-0.1829268292682927,0.7317073170731708,-1.3414634146341464,0.07763671875,0.17236328125,1.0146484375,53.1,14.7,53.1
0.6707317073170732,-0.3658536585365854,0.6097560975609757,0.08544921875,0.1708984375,1.001953125,53.85,16.5,54.6
1.7682926829268295,-0.1829268292682927,-1.2195121951219514,0.0712890625,0.17041015625,1.01611328125,54.0,16.349999999999998,53.699999999999996
-1.524390243902439,2.6219512195121952,-1.6463414634146343,0.0859375,0.17529296875,1.01611328125,54.0,15.6,52.949999999999996
-0.426829268292683,2.7439024390243905,-0.7926829268292683,0.0888671875,0.171875,1.01904296875,53.55,15.6,54.449999999999996
0.6097560975609757,-0.1829268292682927,0.3658536585365854,0.08251953125,0.16357421875,1.0126953125,53.1,15.45,53.55
0.0,0.48780487804878053,-1.7682926829268295,0.10205078125,0.16552734375,1.0107421875,54.3,15.6,53.699999999999996
0.6707317073170732,-0.3658536585365854,-0.5487804878048781,0.07861328125,0.17431640625,1.017578125,53.85,16.2,53.85
-1.3414634146341464,1.8902439024390245,-0.9146341463414634,0.07666015625,0.17529296875,1.0205078125,53.85,16.2,53.1
-0.9146341463414634,1.829268292682927,-0.426829268292683,0.08154296875,0.1640625,1.02001953125,52.949999999999996,15.149999999999999,52.65
1.4634146341463417,1.707317073170732,-0.6707317073170732,0.07421875,0.17041015625,1.025390625,53.55,16.349999999999998,53.4
-1.0975609756097562,0.3658536585365854,-1.707317073170732,0.087890625,0.17138671875,1.015625,53.4,17.25,53.85
1.524390243902439,-0.6097560975609757,0.6097560975609757,0.08349609375,0.17626953125,1.0205078125,55.35,15.0,55.35
1.707317073170732,3.231707317073171,0.30487804878048785,0.08935546875,0.17041015625,1.00732421875,51.9,15.45,55.35
0.48780487804878053,2.439024390243903,0.6707317073170732,0.0908203125,0.17822265625,1.01611328125,54.6,15.45,52.8
-1.4634146341463417,2.0121951219512195,-2.1341463414634148,0.09814453125,0.17236328125,1.01025390625,54.0,15.899999999999999,53.4
-1.524390243902439,2.5,0.12195121951219513,0.0859375,0.1650390625,1.01220703125,53.25,16.349999999999998,54.0
-0.6097560975609757,3.414634146341464,2.073170731707317,0.0810546875,0.181640625,1.00927734375,52.199999999999996,16.349999999999998,54.75
1.8902439024390245,1.5853658536585367,0.426829268292683,0.0908203125,0.1611328125,1.0185546875,52.5,14.85,52.65
0.30487804878048785,-0.9756097560975611,-0.5487804878048781,0.0791015625,0.17431640625,1.01025390625,53.85,16.2,55.35
0.30487804878048785,0.426829268292683,0.3658536585365854,0.0849609375,0.16845703125,1.01611328125,52.949999999999996,15.6,52.949999999999996
0.9146341463414634,0.853658536585366,1.2195121951219514,0.06982421875,0.16845703125,1.0068359375,53.1,14.7,53.85
-0.6097560975609757,1.0975609756097562,-1.2804878048780488,0.0693359375,0.1669921875,1.017578125,53.25,15.6,54.449999999999996
3.2926829268292686,0.7926829268292683,1.6463414634146343,0.0771484375,0.17724609375,1.00732421875,53.1,15.0,53.55
-0.30487804878048785,-0.48780487804878053,-1.402439024390244,0.08349609375,0.1787109375,1.0009765625,54.0,17.099999999999998,54.75
-1.0365853658536586,0.48780487804878053,-2.8658536585365857,0.09033203125,0.16552734375,1.02099609375,52.35,15.75,53.1
0.853658536585366,1.402439024390244,-0.30487804878048785,0.07177734375,0.17138671875,1.0087890625,53.4,15.0,53.55
1.2195121951219514,1.2195121951219514,0.7926829268292683,0.07861328125,0.17578125,1.0205078125,53.1,14.7,52.8
-1.3414634146341464,3.780487804878049,-1.8902439024390245,0.08349609375,0.171875,1.02001953125,53.4,15.75,53.55
-0.24390243902439027,1.3414634146341464,0.9756097560975611,0.0810546875,0.18408203125,1.00341796875,54.9,15.45,53.85
-0.9756097560975611,3.1097560975609757,-0.12195121951219513,0.08251953125,0.1787109375,1.009765625,53.25,15.149999999999999,53.699999999999996
-0.06097560975609757,2.5,-1.2804878048780488,0.0810546875,0.16552734375,1.02880859375,52.949999999999996,16.8,54.449999999999996
-0.426829268292683,1.0365853658536586,-1.524390243902439,0.0732421875,0.171875,1.01318359375,54.15,13.799999999999999,55.35
0.9756097560975611,1.5853658536585367,-0.853658536585366,0.08935546875,0.1650390625,1.0068359375,53.25,15.6,53.699999999999996
-2.682926829268293,0.6097560975609757,0.6707317073170732,0.08544921875,0.16357421875,1.00439453125,51.15,15.45,53.85
-0.5487804878048781,-1.3414634146341464,0.3658536585365854,0.0927734375,0.166015625,1.015625,54.15,17.7,52.35
-0.24390243902439027,0.426829268292683,0.30487804878048785,0.08251953125,0.17724609375,1.01220703125,52.35,14.7,54.3
0.426829268292683,0.30487804878048785,-1.0975609756097562,0.083984375,0.16357421875,1.00537109375,54.0,15.899999999999999,52.949999999999996
0.06097560975609757,3.7195121951219514,0.12195121951219513,0.0712890625,0.171875,1.01953125,53.55,16.349999999999998,54.0
0.853658536585366,1.3414634146341464,-3.2926829268292686,0.07958984375,0.16943359375,1.0078125,54.15,15.45,54.6
1.5853658536585367,0.6707317073170732,-1.9512195121951221,0.07568359375,0.16796875,1.01513671875,53.85,17.25,53.55
-0.6097560975609757,1.6463414634146343,-1.1585365853658538,0.0673828125,0.18017578125,1.01171875,52.5,15.899999999999999,52.949999999999996
1.0975609756097562,0.06097560975609757,-0.7317073170731708,0.0859375,0.1884765625,1.02490234375,53.4,16.5,53.55
-1.402439024390244,3.414634146341464,-3.536585365853659,0.08154296875,0.185546875,1.0166015625,51.75,16.349999999999998,54.449999999999996
0.12195121951219513,1.8902439024390245,-2.8658536585365857,0.0703125,0.1708984375,1.025390625,53.1,15.45,53.1
0.426829268292683,0.9146341463414634,0.426829268292683,0.08642578125,0.17138671875,1.0234375,54.15,16.2,54.3
1.3414634146341464,1.7682926829268295,0.7317073170731708,0.0869140625,0.17578125,1.02978515625,53.4,15.45,54.6
-0.12195121951219513,2.1951219512195124,-0.853658536585366,0.0810546875,0.16845703125,1.0185546875,53.85,15.75,53.85
-0.06097560975609757,-0.48780487804878053,1.6463414634146343,0.072265625,0.15771484375,1.00732421875,53.55,15.6,54.75
2.0121951219512195,0.426829268292683,-0.7926829268292683,0.08251953125,0.16552734375,1.02294921875,53.4,15.45,54.3
-0.06097560975609757,-0.1829268292682927,-0.9146341463414634,0.095703125,0.189453125,1.01318359375,53.4,14.7,54.3
1.9512195121951221,1.402439024390244,0.6097560975609757,0.09033203125,0.16357421875,1.001953125,54.0,15.6,54.449999999999996
1.4634146341463417,0.06097560975609757,-0.7926829268292683,0.103515625,0.16552734375,1.0224609375,52.5,15.6,54.449999999999996
2.1341463414634148,0.6707317073170732,3.1707317073170733,0.07861328125,0.17431640625,1.00830078125,52.65,14.7,54.6
-0.6097560975609757,3.1707317073170733,-1.402439024390244,0.07275390625,0.16650390625,1.025390625,53.25,16.8,54.449999999999996
-1.1585365853658538,1.2804878048780488,-0.5487804878048781,0.09423828125,0.1796875,1.01953125,52.5,15.6,55.5
-0.9146341463414634,1.707317073170732,0.853658536585366,0.08837890625,0.18310546875,1.0068359375,54.3,14.399999999999999,54.75
-2.25609756097561,1.8902439024390245,-2.1951219512195124,0.08154296875,0.17626953125,1.017578125,53.4,15.75,53.1
-0.24390243902439027,1.8902439024390245,0.6707317073170732,0.0888671875,0.173828125,1.00927734375,52.949999999999996,15.899999999999999,54.0
0.12195121951219513,1.707317073170732,-0.426829268292683,0.0859375,0.17041015625,1.0078125,53.55,16.349999999999998,53.4
-1.2195121951219514,1.3414634146341464,0.12195121951219513,0.08935546875,0.15869140625,1.009765625,52.65,15.0,54.3
1.4634146341463417,1.707317073170732,-0.9756097560975611,0.0869140625,0.16943359375,1.0166015625,52.949999999999996,14.85,53.699999999999996
1.402439024390244,1.1585365853658538,0.30487804878048785,0.0849609375,0.17724609375,1.01025390625,52.5,15.6,53.699999999999996
-0.853658536585366,1.0365853658536586,-0.06097560975609757,0.0859375,0.16748046875,1.013671875,52.35,15.0,54.6
-3.4756097560975614,1.3414634146341464,-1.2195121951219514,0.08056640625,0.17138671875,1.013671875,54.15,14.25,54.9
1.1585365853658538,1.524390243902439,2.439024390243903,0.07275390625,0.1787109375,1.01416015625,51.75,16.8,55.199999999999996
-0.853658536585366,0.24390243902439027,0.12195121951219513,0.09033203125,0.1689453125,1.02294921875,52.65,15.0,53.85
-1.0975609756097562,0.853658536585366,-0.06097560975609757,0.07275390625,0.17236328125,1.01953125,54.15,14.7,55.35
2.25609756097561,0.0,0.30487804878048785,0.083984375,0.16650390625,1.021484375,54.6,15.45,54.3
-1.707317073170732,1.829268292682927,-0.1829268292682927,0.08251953125,0.169921875,1.0068359375,53.1,16.95,54.9
1.5853658536585367,0.0,-0.5487804878048781,0.07666015625,0.1708984375,1.0078125,53.25,15.149999999999999,53.699999999999996
0.48780487804878053,0.3658536585365854,1.3414634146341464,0.07177734375,0.1767578125,1.02294921875,52.65,16.2,54.6
-0.3658536585365854,1.2195121951219514,-2.1951219512195124,0.08740234375,0.17236328125,0.9970703125,53.55,14.399999999999999,53.699999999999996
-1.2195121951219514,1.2804878048780488,-0.6707317073170732,0.0830078125,0.17333984375,1.0234375,52.949999999999996,15.899999999999999,53.699999999999996
-0.9146341463414634,1.2195121951219514,0.426829268292683,0.0712890625,0.173828125,1.01416015625,52.199999999999996,15.899999999999999,54.75
0.7317073170731708,0.6097560975609757,-0.6707317073170732,0.09228515625,0.1640625,1.013671875,54.6,15.75,53.55
-1.0365853658536586,-0.30487804878048785,-1.3414634146341464,0.07763671875,0.16796875,1.0078125,53.4,15.0,55.65
-0.24390243902439027,-0.9146341463414634,1.9512195121951221,0.07666015625,0.17138671875,1.01904296875,53.85,15.0,56.1
-2.3170731707317076,0.12195121951219513,-1.5853658536585367,0.07763671875,0.17626953125,1.0126953125,52.949999999999996,14.85,54.75
-1.2804878048780488,0.7926829268292683,1.0365853658536586,0.083984375,0.16650390625,1.0205078125,53.85,15.45,54.6
1.3414634146341464,0.06097560975609757,-1.402439024390244,0.087890625,0.16943359375,1.013671875,53.1,15.0,53.1
-0.7317073170731708,2.378048780487805,-2.073170731707317,0.0693359375,0.16162109375,1.001953125,52.35,16.2,53.55
1.0975609756097562,-0.5487804878048781,0.0,0.08203125,0.17822265625,1.01123046875,54.0,15.6,54.449999999999996
1.0365853658536586,0.5487804878048781,1.9512195121951221,0.08935546875,0.1748046875,1.00927734375,53.25,14.1,53.699999999999996
2.5,0.48780487804878053,-0.3658536585365854,0.08154296875,0.17236328125,1.013671875,53.1,16.5,54.9
1.5853658536585367,2.682926829268293,1.3414634146341464,0.0693359375,0.1728515625,1.01953125,52.5,14.85,52.949999999999996
1.8902439024390245,2.25609756097561,0.9756097560975611,0.091796875,0.1689453125,1.02001953125,52.65,15.45,54.9
0.24390243902439027,1.7682926829268295,-1.1585365853658538,0.0888671875,0.17041015625,1.00341796875,53.25,15.6,53.699999999999996
-1.0365853658536586,0.6707317073170732,-1.2804878048780488,0.09130859375,0.166015625,1.01904296875,52.949999999999996,14.85,53.4
0.24390243902439027,0.30487804878048785,-1.829268292682927,0.083984375,0.17626953125,1.02294921875,52.65,15.45,53.85
1.7682926829268295,1.0975609756097562,1.402439024390244,0.09130859375,0.17919921875,1.01611328125,52.35,15.75,54.3
-0.12195121951219513,-0.1829268292682927,-2.439024390243903,0.08642578125,0.1845703125,1.01953125,54.3,15.149999999999999,54.449999999999996
-0.426829268292683,2.987804878048781,-1.5853658536585367,0.0859375,0.1728515625,1.0009765625,52.5,16.349999999999998,53.699999999999996
0.7926829268292683,1.8902439024390245,-2.1341463414634148,0.076171875,0.17822265625,1.017578125,52.949999999999996,16.349999999999998,53.699999999999996
1.829268292682927,2.073170731707317,-0.48780487804878053,0.0927734375,0.17578125,1.009765625,54.0,16.8,55.199999999999996
-0.30487804878048785,0.853658536585366,-3.658536585365854,0.10400390625,0.17529296875,1.0146484375,51.75,15.899999999999999,54.449999999999996
-1.9512195121951221,-0.426829268292683,-0.9756097560975611,0.08984375,0.1748046875,1.01416015625,53.55,14.85,54.0
-0.12195121951219513,2.073170731707317,-1.0365853658536586,0.08349609375,0.1748046875,1.0068359375,53.55,15.6,52.65
-0.30487804878048785,1.402439024390244,1.2195121951219514,0.10009765625,0.1650390625,1.00634765625,53.1,14.25,54.9
2.073170731707317,1.707317073170732,1.3414634146341464,0.10009765625,0.16650390625,1.0126953125,52.65,14.7,53.85
0.9756097560975611,0.9756097560975611,-0.7926829268292683,0.08203125,0.16650390625,1.01025390625,51.6,17.25,54.9
-0.48780487804878053,-0.6707317073170732,-1.8902439024390245,0.09375,0.18408203125,1.00830078125,53.25,14.1,54.0
-2.5609756097560976,2.378048780487805,-2.439024390243903,0.07470703125,0.17919921875,1.02197265625,53.4,14.7,54.6
0.0,3.048780487804878,0.5487804878048781,0.076171875,0.17236328125,1.02587890625,53.85,15.75,53.55
0.9756097560975611,3.2926829268292686,-0.1829268292682927,0.08349609375,0.18115234375,1.01806640625,54.6,15.45,53.85
-0.5487804878048781,1.5853658536585367,-0.6707317073170732,0.07763671875,0.17919921875,1.01513671875,53.25,15.899999999999999,54.75
-0.7317073170731708,0.6097560975609757,-1.1585365853658538,0.06884765625,0.1767578125,1.0078125,53.85,15.75,54.6
1.2195121951219514,0.30487804878048785,1.0365853658536586,0.07421875,0.16162109375,1.00830078125,53.1,15.45,54.6
0.1829268292682927,0.12195121951219513,-0.7926829268292683,0.08544921875,0.16796875,1.00830078125,52.35,15.45,53.1
-0.24390243902439027,0.9756097560975611,1.5853658536585367,0.09423828125,0.18017578125,0.99951171875,53.1,15.45,54.3
-0.7317073170731708,1.7682926829268295,-1.3414634146341464,0.0791015625,0.17919921875,1.01416015625,52.5,15.899999999999999,53.4
-0.6707317073170732,0.9146341463414634,-0.5487804878048781,0.0908203125,0.17724609375,1.0107421875,54.0,15.6,54.0
0.9146341463414634,1.5853658536585367,-3.414634146341464,0.08544921875,0.1796875,1.01904296875,53.55,15.6,53.4
1.0975609756097562,-0.12195121951219513,0.7926829268292683,0.0810546875,0.1611328125,1.0166015625,53.85,18.0,54.3
-0.6707317073170732,1.6463414634146343,0.9146341463414634,0.08154296875,0.16845703125,1.00830078125,53.25,14.85,54.75
0.0,2.073170731707317,-1.2804878048780488,0.06640625,0.169921875,1.009765625,54.3,15.899999999999999,54.0
1.7682926829268295,-0.7926829268292683,-0.30487804878048785,0.09619140625,0.18310546875,1.01025390625,53.25,15.899999999999999,52.65
0.06097560975609757,1.829268292682927,0.24390243902439027,0.08837890625,0.17138671875,1.00732421875,54.15,15.75,53.85
0.7317073170731708,3.536585365853659,1.0975609756097562,0.07763671875,0.1728515625,1.02685546875,53.1,15.45,52.8
1.524390243902439,-1.2804878048780488,1.2195121951219514,0.08740234375,0.1796875,1.001953125,53.1,17.7,53.85
1.402439024390244,0.1829268292682927,1.3414634146341464,0.0791015625,0.1650390625,1.0205078125,53.4,16.5,54.6
0.6707317073170732,0.6097560975609757,-1.707317073170732,0.091796875,0.1640625,1.01953125,53.4,16.2,54.3
1.707317073170732,0.853658536585366,1.0975609756097562,0.0751953125,0.17236328125,1.02099609375,52.65,16.5,54.6
-0.426829268292683,-2.1951219512195124,0.3658536585365854,0.08837890625,0.1640625,1.013671875,52.35,15.0,53.85
0.6707317073170732,2.378048780487805,-1.2804878048780488,0.095703125,0.18212890625,1.01123046875,53.4,15.45,53.85
0.06097560975609757,0.0,-0.1829268292682927,0.08837890625,0.1767578125,0.9951171875,54.0,15.899999999999999,53.699999999999996
-1.707317073170732,1.1585365853658538,0.48780487804878053,0.08544921875,0.1806640625,1.0205078125,52.65,14.25,53.55
1.0365853658536586,-2.073170731707317,1.3414634146341464,0.08447265625,0.17236328125,1.021484375,53.1,15.45,53.55
-0.6097560975609757,2.804878048780488,-0.6707317073170732,0.0849609375,0.1767578125,1.01513671875,53.85,16.2,54.3
0.1829268292682927,0.853658536585366,1.2804878048780488,0.0703125,0.1728515625,1.0244140625,51.6,15.45,54.3
1.707317073170732,1.5853658536585367,-1.9512195121951221,0.072265625,0.17822265625,1.0205078125,52.949999999999996,14.85,54.449999999999996
0.426829268292683,0.0,-0.12195121951219513,0.0859375,0.17822265625,1.015625,53.1,15.45,54.3
1.5853658536585367,2.073170731707317,-0.853658536585366,0.07958984375,0.17626953125,1.00830078125,51.9,16.2,53.85
-0.06097560975609757,-1.0975609756097562,0.7926829268292683,0.0751953125,0.16748046875,1.013671875,53.4,16.95,53.85
1.0365853658536586,1.1585365853658538,1.0975609756097562,0.08056640625,0.17236328125,1.02490234375,53.25,15.149999999999999,54.75
0.9146341463414634,0.3658536585365854,-0.48780487804878053,0.0732421875,0.17431640625,1.021484375,53.1,15.0,54.6
-0.30487804878048785,0.853658536585366,-1.8902439024390245,0.08154296875,0.1767578125,1.0146484375,53.25,15.899999999999999,54.75
-1.4634146341463417,-0.12195121951219513,-1.2195121951219514,0.0888671875,0.17431640625,1.009765625,53.25,16.8,53.699999999999996
-0.12195121951219513,0.426829268292683,-0.5487804878048781,0.072265625,0.18212890625,1.01904296875,53.1,15.75,53.85
0.30487804878048785,1.402439024390244,-0.30487804878048785,0.0810546875,0.1845703125,1.0068359375,52.949999999999996,16.349999999999998,52.949999999999996
-0.426829268292683,-1.6463414634146343,-1.707317073170732,0.08544921875,0.15576171875,1.013671875,52.949999999999996,14.85,54.75
-0.06097560975609757,1.6463414634146343,-2.3170731707317076,0.07861328125,0.18212890625,1.01220703125,53.25,14.1,55.8
-0.5487804878048781,1.402439024390244,-1.524390243902439,0.07275390625,0.1787109375,1.0146484375,53.85,15.75,53.55
0.9146341463414634,1.402439024390244,-2.8658536585365857,0.091796875,0.17041015625,1.00634765625,53.1,18.45,53.85
-1.4634146341463417,-0.24390243902439027,-0.7317073170731708,0.08154296875,0.1806640625,1.01708984375,51.9,14.7,54.3
-2.378048780487805,2.073170731707317,-2.1951219512195124,0.06982421875,0.16748046875,1.02392578125,53.1,16.2,54.9
1.1585365853658538,1.707317073170732,-1.524390243902439,0.08447265625,0.17822265625,1.01220703125,52.35,16.2,53.55
-1.3414634146341464,2.073170731707317,-0.12195121951219513,0.083984375,0.1650390625,1.02880859375,53.25,15.149999999999999,52.949999999999996
-1.707317073170732,1.0975609756097562,-3.1097560975609757,0.080078125,0.16162109375,1.0166015625,53.1,14.7,54.3
0.24390243902439027,4.085365853658537,0.9756097560975611,0.07763671875,0.1796875,1.01123046875,54.15,15.45,54.6
-0.24390243902439027,1.829268292682927,0.24390243902439027,0.076171875,0.16748046875,1.021484375,52.35,15.45,53.85
0.0,1.6463414634146343,-2.8658536585365857,0.0703125,0.18115234375,1.02197265625,54.3,17.099999999999998,54.449999999999996
2.0121951219512195,1.524390243902439,-0.1829268292682927,0.09521484375,0.173828125,1.01416015625,52.35,16.5,54.6
0.24390243902439027,-0.6707317073170732,-0.30487804878048785,0.0810546875,0.16943359375,1.01611328125,53.25,15.899999999999999,54.75
-0.5487804878048781,0.06097560975609757,0.30487804878048785,0.09033203125,0.16943359375,1.00927734375,53.85,15.0,54.6
-1.4634146341463417,-0.24390243902439027,-0.5487804878048781,0.0693359375,0.16943359375,1.01318359375,53.1,16.2,53.55
0.9756097560975611,0.9756097560975611,0.426829268292683,0.08447265625,0.17724609375,1.00830078125,53.25,15.6,55.199999999999996
-0.426829268292683,-0.853658536585366,-0.7317073170731708,0.0810546875,0.169921875,1.0185546875,54.0,15.899999999999999,52.949999999999996
2.073170731707317,-0.12195121951219513,0.48780487804878053,0.072265625,0.18701171875,1.01220703125,52.5,15.149999999999999,52.949999999999996
0.6097560975609757,3.4756097560975614,0.6097560975609757,0.078125,0.17822265625,1.01806640625,52.65,17.25,53.55
1.2804878048780488,1.4634146341463417,-0.853658536585366,0.08935546875,0.1728515625,1.0068359375,52.949999999999996,17.55,55.5
1.524390243902439,0.24390243902439027,0.24390243902439027,0.09228515625,0.158203125,1.0126953125,53.4,13.799999999999999,54.6
0.7317073170731708,0.1829268292682927,1.524390243902439,0.08740234375,0.16943359375,1.01416015625,52.65,15.0,53.85
0.7926829268292683,2.0121951219512195,-0.3658536585365854,0.0888671875,0.18896484375,1.0087890625,53.25,15.6,54.449999999999996
-0.30487804878048785,1.9512195121951221,-0.853658536585366,0.08349609375,0.1689453125,0.99560546875,52.35,15.45,53.55
1.1585365853658538,0.1829268292682927,0.0,0.08837890625,0.1845703125,1.02392578125,53.85,16.95,54.9
-0.1829268292682927,-0.48780487804878053,-1.707317073170732,0.087890625,0.1669921875,1.01123046875,52.5,16.349999999999998,54.449999999999996
0.48780487804878053,4.817073170731708,1.0975609756097562,0.0859375,0.18115234375,1.01806640625,53.1,16.2,54.3
-0.6097560975609757,1.0365853658536586,0.12195121951219513,0.08154296875,0.18017578125,1.015625,54.6,16.95,53.55
-1.0975609756097562,1.5853658536585367,-1.3414634146341464,0.087890625,0.17626953125,1.00244140625,54.0,14.85,56.25
0.6707317073170732,-0.12195121951219513,-1.707317073170732,0.06884765625,0.15869140625,1.013671875,53.55,15.899999999999999,53.699999999999996
0.6707317073170732,2.804878048780488,-0.6097560975609757,0.09326171875,0.1787109375,1.01953125,53.25,15.149999999999999,54.0
2.1341463414634148,1.402439024390244,-1.0975609756097562,0.076171875,0.1728515625,1.0146484375,53.4,16.2,53.55
-0.5487804878048781,0.9146341463414634,-1.7682926829268295,0.07080078125,0.169921875,1.02001953125,52.949999999999996,15.149999999999999,54.449999999999996
0.5487804878048781,1.0975609756097562,0.9146341463414634,0.0888671875,0.1767578125,1.01513671875,54.0,17.099999999999998,53.699999999999996
0.6707317073170732,2.5,-1.3414634146341464,0.08642578125,0.1689453125,1.0244140625,54.0,15.899999999999999,54.0
1.0365853658536586,1.5853658536585367,2.5,0.0888671875,0.17431640625,1.02294921875,52.949999999999996,16.349999999999998,53.699999999999996
1.5853658536585367,1.2195121951219514,1.2195121951219514,0.09619140625,0.1689453125,1.01708984375,52.65,15.0,53.55
-1.3414634146341464,1.0365853658536586,-0.24390243902439027,0.09033203125,0.16943359375,1.0224609375,53.25,15.149999999999999,53.4
0.3658536585365854,1.7682926829268295,-2.5609756097560976,0.08447265625,0.1806640625,1.00537109375,54.6,16.2,53.55
-0.06097560975609757,2.3170731707317076,-1.5853658536585367,0.07275390625,0.17529296875,1.01708984375,53.25,14.85,52.949999999999996
-0.5487804878048781,1.1585365853658538,0.3658536585365854,0.08837890625,0.18017578125,1.01806640625,53.25,14.85,53.4
0.06097560975609757,2.8658536585365857,-0.48780487804878053,0.06884765625,0.18603515625,1.0068359375,52.949999999999996,15.899999999999999,54.0
1.0365853658536586,1.0975609756097562,-2.1341463414634148,0.0888671875,0.1826171875,1.015625,54.6,15.75,53.55
1.5853658536585367,-0.12195121951219513,0.5487804878048781,0.091796875,0.17529296875,1.00341796875,52.5,15.6,54.75
0.0,0.48780487804878053,-0.6097560975609757,0.08154296875,0.16162109375,1.0126953125,54.0,15.6,52.949999999999996
-35.1219512195122,-9.26829268292683,-3.2926829268292686,0.0888671875,0.1083984375,0.89794921875,52.65,15.45,54.6
-9.146341463414634,0.06097560975609757,4.207317073170732,0.138671875,0.10791015625,0.96044921875,53.4,15.75,53.85
-18.475609756097562,0.7926829268292683,2.073170731707317,0.09228515625,0.12939453125,1.02490234375,53.55,15.149999999999999,55.5
-1.0975609756097562,2.5609756097560976,-1.5853658536585367,0.0849609375,0.1728515625,1.01416015625,52.949999999999996,15.899999999999999,53.4
-0.1829268292682927,-0.12195121951219513,0.426829268292683,0.0810546875,0.171875,1.01513671875,52.949999999999996,15.6,53.4
-1.3414634146341464,0.3658536585365854,-1.2804878048780488,0.09716796875,0.16943359375,1.02001953125,52.949999999999996,15.149999999999999,53.699999999999996
-1.2195121951219514,1.1585365853658538,-0.853658536585366,0.09765625,0.15966796875,1.009765625,52.35,15.75,53.85
-0.6097560975609757,3.1707317073170733,0.06097560975609757,0.0771484375,0.17626953125,1.01806640625,53.25,15.6,53.4
1.524390243902439,1.1585365853658538,-1.707317073170732,0.087890625,0.17529296875,1.01806640625,53.25,15.149999999999999,53.699999999999996
0.3658536585365854,2.8658536585365857,-0.6707317073170732,0.08447265625,0.16748046875,1.0087890625,53.1,15.45,52.35
2.439024390243903,0.6097560975609757,-1.1585365853658538,0.072265625,0.17822265625,1.00244140625,52.35,15.45,55.35
-0.9146341463414634,1.6463414634146343,-1.1585365853658538,0.08154296875,0.1650390625,1.015625,53.25,15.149999999999999,52.949999999999996
1.2195121951219514,2.3170731707317076,1.8902439024390245,0.07763671875,0.1787109375,1.0126953125,53.55,16.8,54.0
1.4634146341463417,0.24390243902439027,-0.426829268292683,0.0791015625,0.1826171875,1.0126953125,53.1,16.5,54.3
0.6707317073170732,1.829268292682927,0.426829268292683,0.08447265625,0.1640625,1.0166015625,52.35,15.45,53.55
-0.30487804878048785,-0.9146341463414634,2.073170731707317,0.08154296875,0.171875,1.0224609375,53.4,14.7,53.85
2.0121951219512195,1.1585365853658538,0.1829268292682927,0.07666015625,0.17919921875,1.0205078125,53.1,15.75,54.6
-0.6707317073170732,3.048780487804878,0.6707317073170732,0.0849609375,0.16845703125,1.02197265625,52.5,15.899999999999999,52.65
0.24390243902439027,-1.3414634146341464,0.0,0.08056640625,0.16796875,1.00634765625,53.55,16.8,54.0
0.426829268292683,3.353658536585366,-1.0975609756097562,0.07958984375,0.166015625,1.01416015625,52.35,15.75,53.55
-0.5487804878048781,0.1829268292682927,-1.6463414634146343,0.06982421875,0.1552734375,1.00927734375,54.0,15.6,54.0
0.06097560975609757,1.707317073170732,0.6707317073170732,0.07275390625,0.17333984375,1.01123046875,53.85,15.0,54.9
-1.5853658536585367,1.707317073170732,0.30487804878048785,0.076171875,0.1796875,1.0185546875,52.949999999999996,14.85,53.699999999999996
-1.707317073170732,-0.3658536585365854,1.707317073170732,0.08349609375,0.1826171875,1.00390625,52.65,16.2,54.6
-1.402439024390244,0.7926829268292683,-0.426829268292683,0.076171875,0.17138671875,1.01806640625,53.1,15.75,54.3
-0.06097560975609757,0.0,0.48780487804878053,0.0830078125,0.1796875,1.017578125,53.4,15.45,54.6
1.8902439024390245,1.0365853658536586,0.426829268292683,0.07861328125,0.17333984375,1.0185546875,53.4,15.75,55.35
-0.426829268292683,-0.853658536585366,-0.7317073170731708,0.09326171875,0.1591796875,1.0146484375,54.15,15.0,54.3
0.30487804878048785,0.6707317073170732,-0.853658536585366,0.07421875,0.173828125,1.0205078125,51.9,16.2,54.6
-1.9512195121951221,0.1829268292682927,-0.6097560975609757,0.083984375,0.166015625,1.01416015625,51.75,15.149999999999999,53.699999999999996
-0.7317073170731708,3.231707317073171,-0.3658536585365854,0.08740234375,0.17822265625,1.0205078125,53.4,15.45,55.35
-0.24390243902439027,1.524390243902439,1.0365853658536586,0.07177734375,0.16455078125,1.00634765625,52.35,17.25,55.35
0.12195121951219513,0.6707317073170732,-1.829268292682927,0.08056640625,0.16015625,1.01953125,52.65,16.2,54.9
1.0975609756097562,0.426829268292683,-1.2195121951219514,0.07177734375,0.173828125,1.009765625,54.0,16.349999999999998,53.699999999999996
0.24390243902439027,0.5487804878048781,-1.2804878048780488,0.08154296875,0.18212890625,1.01513671875,52.35,15.45,54.9
1.4634146341463417,1.0365853658536586,0.853658536585366,0.0703125,0.16845703125,1.01171875,52.5,15.149999999999999,54.0
0.0,1.524390243902439,0.30487804878048785,0.07275390625,0.1748046875,1.01171875,53.1,16.2,54.9
1.524390243902439,3.5975609756097566,1.402439024390244,0.07958984375,0.17578125,1.01416015625,53.25,15.6,52.65
-0.9756097560975611,1.2195121951219514,-0.1829268292682927,0.080078125,0.16845703125,1.0126953125,53.1,14.7,54.3
-0.06097560975609757,0.9756097560975611,-3.414634146341464,0.08154296875,0.17041015625,1.01708984375,52.949999999999996,17.099999999999998,52.949999999999996
0.9146341463414634,2.987804878048781,-0.9146341463414634,0.0908203125,0.17236328125,1.0107421875,52.949999999999996,16.349999999999998,54.449999999999996
-1.2195121951219514,0.0,-1.402439024390244,0.06005859375,0.16455078125,1.03271484375,53.1,15.45,53.85
-2.9268292682926833,-0.1829268292682927,-3.353658536585366,0.0751953125,0.1669921875,1.009765625,54.3,15.6,53.4
0.30487804878048785,1.4634146341463417,1.6463414634146343,0.0869140625,0.171875,1.001953125,53.25,16.8,54.449999999999996
-1.0365853658536586,0.0,0.426829268292683,0.07275390625,0.173828125,1.005859375,52.949999999999996,14.85,52.949999999999996
-0.853658536585366,1.707317073170732,2.439024390243903,0.08056640625,0.17138671875,1.02587890625,52.199999999999996,15.899999999999999,53.4
-1.0365853658536586,1.1585365853658538,-1.0975609756097562,0.07763671875,0.17529296875,1.0283203125,55.5,16.349999999999998,54.75
-0.9756097560975611,0.6707317073170732,0.426829268292683,0.07373046875,0.17578125,1.01171875,51.9,16.2,53.55
-1.707317073170732,0.5487804878048781,1.707317073170732,0.091796875,0.16943359375,1.01904296875,53.25,15.899999999999999,55.199999999999996
-1.3414634146341464,0.1829268292682927,0.853658536585366,0.08544921875,0.1650390625,1.0263671875,53.25,15.149999999999999,54.449999999999996
0.6097560975609757,1.0975609756097562,0.853658536585366,0.08154296875,0.17236328125,1.01220703125,53.4,15.45,53.55
0.24390243902439027,-0.48780487804878053,0.7926829268292683,0.07275390625,0.171875,1.017578125,54.0,16.349999999999998,53.4
-0.7317073170731708,1.829268292682927,1.0365853658536586,0.07958984375,0.17236328125,1.0146484375,53.4,15.75,53.85
0.853658536585366,1.2804878048780488,0.5487804878048781,0.08740234375,0.18017578125,1.01123046875,51.6,15.75,53.55
-0.6707317073170732,-0.3658536585365854,2.073170731707317,0.07275390625,0.1708984375,1.01318359375,53.25,15.899999999999999,54.75
-1.1585365853658538,0.7926829268292683,-0.5487804878048781,0.0859375,0.17578125,1.00439453125,51.9,14.25,53.85
-1.524390243902439,1.2195121951219514,-0.7926829268292683,0.0751953125,0.17138671875,1.01220703125,53.1,15.45,53.85
0.853658536585366,1.2195121951219514,-1.524390243902439,0.07275390625,0.16748046875,1.00830078125,53.25,16.349999999999998,54.0
-0.5487804878048781,-0.12195121951219513,-0.24390243902439027,0.08447265625,0.18115234375,1.01123046875,52.65,16.2,54.6
-0.30487804878048785,0.7926829268292683,0.426829268292683,0.07666015625,0.16796875,1.005859375,53.25,14.399999999999999,54.75
-2.378048780487805,1.7682926829268295,1.524390243902439,0.087890625,0.17138671875,1.01708984375,52.949999999999996,16.349999999999998,54.0
1.2804878048780488,0.3658536585365854,-0.12195121951219513,0.0830078125,0.177734375,1.01513671875,52.65,15.45,54.3
-1.0365853658536586,2.5609756097560976,1.402439024390244,0.0888671875,0.1826171875,1.00927734375,53.1,15.0,53.1
-0.853658536585366,-1.3414634146341464,-0.06097560975609757,0.07763671875,0.16796875,1.00048828125,53.1,15.75,53.85
0.1829268292682927,2.1951219512195124,-1.7682926829268295,0.080078125,0.17724609375,1.013671875,54.15,15.45,53.1
-0.5487804878048781,2.1951219512195124,-0.48780487804878053,0.078125,0.1767578125,1.0107421875,54.0,16.349999999999998,54.449999999999996
0.30487804878048785,2.9268292682926833,-0.48780487804878053,0.1025390625,0.1611328125,1.0166015625,53.1,16.95,54.3
1.0365853658536586,0.48780487804878053,1.0975609756097562,0.09423828125,0.169921875,1.01708984375,52.35,15.75,53.1
0.426829268292683,2.1951219512195124,-1.5853658536585367,0.08984375,0.16845703125,1.01025390625,53.55,15.149999999999999,54.75
1.707317073170732,1.524390243902439,-1.7682926829268295,0.08837890625,0.162109375,1.015625,52.949999999999996,15.149999999999999,53.4
0.9756097560975611,1.8902439024390245,0.426829268292683,0.0771484375,0.16552734375,1.01806640625,53.25,15.6,53.699999999999996
1.707317073170732,1.524390243902439,2.1951219512195124,0.07666015625,0.16552734375,1.01025390625,52.35,15.0,53.1
-1.402439024390244,1.9512195121951221,2.7439024390243905,0.0703125,0.16748046875,1.01416015625,53.55,15.6,52.949999999999996
-1.2195121951219514,0.30487804878048785,0.30487804878048785,0.0693359375,0.173828125,1.009765625,53.25,14.399999999999999,54.449999999999996
-1.0975609756097562,1.3414634146341464,-1.707317073170732,0.0869140625,0.17041015625,1.01806640625,54.0,16.349999999999998,54.449999999999996
-0.5487804878048781,1.829268292682927,0.5487804878048781,0.09130859375,0.17431640625,1.0126953125,53.4,15.0,53.55
0.0,-0.12195121951219513,-0.06097560975609757,0.080078125,0.1640625,1.00390625,55.05,15.6,54.0
1.707317073170732,1.5853658536585367,-1.1585365853658538,0.078125,0.1708984375,1.0224609375,53.4,15.75,53.85
2.682926829268293,0.426829268292683,-1.829268292682927,0.0771484375,0.171875,1.01416015625,52.65,15.45,53.1
1.402439024390244,2.378048780487805,0.853658536585366,0.091796875,0.16259765625,1.02001953125,52.5,15.149999999999999,53.4
1.707317073170732,0.30487804878048785,1.9512195121951221,0.08984375,0.1806640625,0.9970703125,53.4,15.45,54.6
1.0365853658536586,0.9756097560975611,0.7926829268292683,0.08642578125,0.17529296875,1.02197265625,53.85,15.75,53.85
0.0,3.780487804878049,-0.6707317073170732,0.0869140625,0.1748046875,1.01513671875,52.5,15.149999999999999,54.0
-0.7926829268292683,1.402439024390244,-0.24390243902439027,0.0849609375,0.16943359375,1.00927734375,53.85,15.45,55.65
0.30487804878048785,0.0,1.402439024390244,0.07958984375,0.169921875,1.025390625,52.35,14.25,52.8
-1.707317073170732,1.0365853658536586,1.0975609756097562,0.087890625,0.1796875,1.01513671875,52.949999999999996,16.349999999999998,52.65
2.0121951219512195,0.24390243902439027,0.06097560975609757,0.080078125,0.17529296875,1.01220703125,53.55,14.85,53.4
0.0,0.6097560975609757,1.6463414634146343,0.08740234375,0.177734375,1.01318359375,52.65,16.5,54.6
-2.804878048780488,1.402439024390244,0.426829268292683,0.07861328125,0.169921875,1.0068359375,53.25,14.399999999999999,54.449999999999996
1.0365853658536586,0.06097560975609757,0.7317073170731708,0.072265625,0.18408203125,1.0087890625,53.55,16.349999999999998,54.0
-0.12195121951219513,1.2195121951219514,2.1341463414634148,0.06787109375,0.16845703125,1.01123046875,52.199999999999996,15.149999999999999,54.0
1.5853658536585367,0.6707317073170732,-0.9146341463414634,0.0771484375,0.173828125,1.02099609375,53.25,14.85,54.449999999999996
-0.9146341463414634,3.4756097560975614,-0.3658536585365854,0.08544921875,0.16748046875,1.0224609375,52.35,15.75,54.3
-1.8902439024390245,-1.524390243902439,0.1829268292682927,0.09423828125,0.1787109375,1.015625,52.199999999999996,14.85,53.4
0.853658536585366,2.073170731707317,1.2195121951219514,0.08642578125,0.166015625,1.00537109375,53.85,15.45,55.35
-1.1585365853658538,0.9146341463414634,0.12195121951219513,0.076171875,0.16455078125,1.0107421875,53.55,15.149999999999999,54.0
-0.24390243902439027,-0.1829268292682927,-0.12195121951219513,0.08544921875,0.169921875,1.0224609375,54.0,14.85,54.75
-0.6707317073170732,-0.3658536585365854,-0.12195121951219513,0.0927734375,0.15771484375,1.02197265625,52.35,13.049999999999999,53.85
0.1829268292682927,2.5,-1.524390243902439,0.0791015625,0.16357421875,1.013671875,54.0,15.899999999999999,54.449999999999996
-0.24390243902439027,-1.2804878048780488,0.0,0.07080078125,0.16748046875,1.0146484375,52.949999999999996,15.6,54.449999999999996
-1.6463414634146343,2.0121951219512195,-0.3658536585365854,0.07958984375,0.16943359375,1.0048828125,54.3,15.899999999999999,54.75
0.1829268292682927,1.9512195121951221,0.853658536585366,0.0908203125,0.16748046875,1.0029296875,53.4,15.0,53.55
0.426829268292683,-0.7317073170731708,0.426829268292683,0.07763671875,0.17529296875,1.00830078125,53.25,14.1,55.199999999999996
1.402439024390244,1.0365853658536586,-0.7317073170731708,0.09521484375,0.1796875,1.02685546875,54.15,16.5,54.6
-0.1829268292682927,0.7317073170731708,-1.3414634146341464,0.07763671875,0.17236328125,1.0146484375,53.1,14.7,53.1
0.6707317073170732,-0.3658536585365854,0.6097560975609757,0.08544921875,0.1708984375,1.001953125,53.85,16.5,54.6
1.7682926829268295,-0.1829268292682927,-1.2195121951219514,0.0712890625,0.17041015625,1.01611328125,54.0,16.349999999999998,53.699999999999996
-1.524390243902439,2.6219512195121952,-1.6463414634146343,0.0859375,0.17529296875,1.01611328125,54.0,15.6,52.949999999999996
-0.426829268292683,2.7439024390243905,-0.7926829268292683,0.0888671875,0.171875,1.01904296875,53.55,15.6,54.449999999999996
0.6097560975609757,-0.1829268292682927,0.3658536585365854,0.08251953125,0.16357421875,1.0126953125,53.1,15.45,53.55
0.0,0.48780487804878053,-1.7682926829268295,0.10205078125,0.16552734375,1.0107421875,54.3,15.6,53.699999999999996
0.6707317073170732,-0.3658536585365854,-0.5487804878048781,0.07861328125,0.17431640625,1.017578125,53.85,16.2,53.85
-1.3414634146341464,1.8902439024390245,-0.9146341463414634,0.07666015625,0.17529296875,1.0205078125,53.85,16.2,53.1
-0.9146341463414634,1.829268292682927,-0.426829268292683,0.08154296875,0.1640625,1.02001953125,52.949999999999996,15.149999999999999,52.65
1.4634146341463417,1.707317073170732,-0.6707317073170732,0.07421875,0.17041015625,1.025390625,53.55,16.349999999999998,53.4
-1.0975609756097562,0.3658536585365854,-1.707317073170732,0.087890625,0.17138671875,1.015625,53.4,17.25,53.85
1.524390243902439,-0.6097560975609757,0.6097560975609757,0.08349609375,0.17626953125,1.0205078125,55.35,15.0,55.35
1.707317073170732,3.231707317073171,0.30487804878048785,0.08935546875,0.17041015625,1.00732421875,51.9,15.45,55.35
0.48780487804878053,2.439024390243903,0.6707317073170732,0.0908203125,0.17822265625,1.01611328125,54.6,15.45,52.8
-1.4634146341463417,2.0121951219512195,-2.1341463414634148,0.09814453125,0.17236328125,1.01025390625,54.0,15.899999999999999,53.4
-1.524390243902439,2.5,0.12195121951219513,0.0859375,0.1650390625,1.01220703125,53.25,16.349999999999998,54.0
-0.6097560975609757,3.414634146341464,2.073170731707317,0.0810546875,0.181640625,1.00927734375,52.199999999999996,16.349999999999998,54.75
1.8902439024390245,1.5853658536585367,0.426829268292683,0.0908203125,0.1611328125,1.0185546875,52.5,14.85,52.65
0.30487804878048785,-0.9756097560975611,-0.5487804878048781,0.0791015625,0.17431640625,1.01025390625,53.85,16.2,55.35
0.30487804878048785,0.426829268292683,0.3658536585365854,0.0849609375,0.16845703125,1.01611328125,52.949999999999996,15.6,52.949999999999996
0.9146341463414634,0.853658536585366,1.2195121951219514,0.06982421875,0.16845703125,1.0068359375,53.1,14.7,53.85
-0.6097560975609757,1.0975609756097562,-1.2804878048780488,0.0693359375,0.1669921875,1.017578125,53.25,15.6,54.449999999999996
3.2926829268292686,0.7926829268292683,1.6463414634146343,0.0771484375,0.17724609375,1.00732421875,53.1,15.0,53.55
-0.30487804878048785,-0.48780487804878053,-1.402439024390244,0.08349609375,0.1787109375,1.0009765625,54.0,17.099999999999998,54.75
-1.0365853658536586,0.48780487804878053,-2.8658536585365857,0.09033203125,0.16552734375,1.02099609375,52.35,15.75,53.1
0.853658536585366,1.402439024390244,-0.30487804878048785,0.07177734375,0.17138671875,1.0087890625,53.4,15.0,53.55
1.2195121951219514,1.2195121951219514,0.7926829268292683,0.07861328125,0.17578125,1.0205078125,53.1,14.7,52.8
-1.3414634146341464,3.780487804878049,-1.8902439024390245,0.08349609375,0.171875,1.02001953125,53.4,15.75,53.55
-0.24390243902439027,1.3414634146341464,0.9756097560975611,0.0810546875,0.18408203125,1.00341796875,54.9,15.45,53.85
-0.9756097560975611,3.1097560975609757,-0.12195121951219513,0.08251953125,0.1787109375,1.009765625,53.25,15.149999999999999,53.699999999999996
-0.06097560975609757,2.5,-1.2804878048780488,0.0810546875,0.16552734375,1.02880859375,52.949999999999996,16.8,54.449999999999996
-0.426829268292683,1.0365853658536586,-1.524390243902439,0.0732421875,0.171875,1.01318359375,54.15,13.799999999999999,55.35
0.9756097560975611,1.5853658536585367,-0.853658536585366,0.08935546875,0.1650390625,1.0068359375,53.25,15.6,53.699999999999996
-2.682926829268293,0.6097560975609757,0.6707317073170732,0.08544921875,0.16357421875,1.00439453125,51.15,15.45,53.85
-0.5487804878048781,-1.3414634146341464,0.3658536585365854,0.0927734375,0.166015625,1.015625,54.15,17.7,52.35
-0.24390243902439027,0.426829268292683,0.30487804878048785,0.08251953125,0.17724609375,1.01220703125,52.35,14.7,54.3
0.426829268292683,0.30487804878048785,-1.0975609756097562,0.083984375,0.16357421875,1.00537109375,54.0,15.899999999999999,52.949999999999996
0.06097560975609757,3.7195121951219514,0.12195121951219513,0.0712890625,0.171875,1.01953125,53.55,16.349999999999998,54.0
0.853658536585366,1.3414634146341464,-3.2926829268292686,0.07958984375,0.16943359375,1.0078125,54.15,15.45,54.6
1.5853658536585367,0.6707317073170732,-1.9512195121951221,0.07568359375,0.16796875,1.01513671875,53.85,17.25,53.55
-0.6097560975609757,1.6463414634146343,-1.1585365853658538,0.0673828125,0.18017578125,1.01171875,52.5,15.899999999999999,52.949999999999996
1.0975609756097562,0.06097560975609757,-0.7317073170731708,0.0859375,0.1884765625,1.02490234375,53.4,16.5,53.55
-1.402439024390244,3.414634146341464,-3.536585365853659,0.08154296875,0.185546875,1.0166015625,51.75,16.349999999999998,54.449999999999996
0.12195121951219513,1.8902439024390245,-2.8658536585365857,0.0703125,0.1708984375,1.025390625,53.1,15.45,53.1
0.426829268292683,0.9146341463414634,0.426829268292683,0.08642578125,0.17138671875,1.0234375,54.15,16.2,54.3
1.3414634146341464,1.7682926829268295,0.7317073170731708,0.0869140625,0.17578125,1.02978515625,53.4,15.45,54.6
-0.12195121951219513,2.1951219512195124,-0.853658536585366,0.0810546875,0.16845703125,1.0185546875,53.85,15.75,53.85
-0.06097560975609757,-0.48780487804878053,1.6463414634146343,0.072265625,0.15771484375,1.00732421875,53.55,15.6,54.75
2.0121951219512195,0.426829268292683,-0.7926829268292683,0.08251953125,0.16552734375,1.02294921875,53.4,15.45,54.3
-0.06097560975609757,-0.1829268292682927,-0.9146341463414634,0.095703125,0.189453125,1.01318359375,53.4,14.7,54.3
1.9512195121951221,1.402439024390244,0.6097560975609757,0.09033203125,0.16357421875,1.001953125,54.0,15.6,54.449999999999996
1.4634146341463417,0.06097560975609757,-0.7926829268292683,0.103515625,0.16552734375,1.0224609375,52.5,15.6,54.449999999999996
2.1341463414634148,0.6707317073170732,3.1707317073170733,0.07861328125,0.17431640625,1.00830078125,52.65,14.7,54.6
-0.6097560975609757,3.1707317073170733,-1.402439024390244,0.07275390625,0.16650390625,1.025390625,53.25,16.8,54.449999999999996
-1.1585365853658538,1.2804878048780488,-0.5487804878048781,0.09423828125,0.1796875,1.01953125,52.5,15.6,55.5
-0.9146341463414634,1.707317073170732,0.853658536585366,0.08837890625,0.18310546875,1.0068359375,54.3,14.399999999999999,54.75
-2.25609756097561,1.8902439024390245,-2.1951219512195124,0.08154296875,0.17626953125,1.017578125,53.4,15.75,53.1
-0.24390243902439027,1.8902439024390245,0.6707317073170732,0.0888671875,0.173828125,1.00927734375,52.949999999999996,15.899999999999999,54.0
0.12195121951219513,1.707317073170732,-0.426829268292683,0.0859375,0.17041015625,1.0078125,53.55,16.349999999999998,53.4
-1.2195121951219514,1.3414634146341464,0.12195121951219513,0.08935546875,0.15869140625,1.009765625,52.65,15.0,54.3
1.4634146341463417,1.707317073170732,-0.9756097560975611,0.0869140625,0.16943359375,1.0166015625,52.949999999999996,14.85,53.699999999999996
1.402439024390244,1.1585365853658538,0.30487804878048785,0.0849609375,0.17724609375,1.01025390625,52.5,15.6,53.699999999999996
-0.853658536585366,1.0365853658536586,-0.06097560975609757,0.0859375,0.16748046875,1.013671875,52.35,15.0,54.6
-3.4756097560975614,1.3414634146341464,-1.2195121951219514,0.08056640625,0.17138671875,1.013671875,54.15,14.25,54.9
1.1585365853658538,1.524390243902439,2.439024390243903,0.07275390625,0.1787109375,1.01416015625,51.75,16.8,55.199999999999996
-0.853658536585366,0.24390243902439027,0.12195121951219513,0.09033203125,0.1689453125,1.02294921875,52.65,15.0,53.85
-1.0975609756097562,0.853658536585366,-0.06097560975609757,0.07275390625,0.17236328125,1.01953125,54.15,14.7,55.35
2.25609756097561,0.0,0.30487804878048785,0.083984375,0.16650390625,1.021484375,54.6,15.45,54.3
-1.707317073170732,1.829268292682927,-0.1829268292682927,0.08251953125,0.169921875,1.0068359375,53.1,16.95,54.9
1.5853658536585367,0.0,-0.5487804878048781,0.07666015625,0.1708984375,1.0078125,53.25,15.149999999999999,53.699999999999996
0.48780487804878053,0.3658536585365854,1.3414634146341464,0.07177734375,0.1767578125,1.02294921875,52.65,16.2,54.6
-0.3658536585365854,1.2195121951219514,-2.1951219512195124,0.08740234375,0.17236328125,0.9970703125,53.55,14.399999999999999,53.699999999999996
-1.2195121951219514,1.2804878048780488,-0.6707317073170732,0.0830078125,0.17333984375,1.0234375,52.949999999999996,15.899999999999999,53.699999999999996
-0.9146341463414634,1.2195121951219514,0.426829268292683,0.0712890625,0.173828125,1.01416015625,52.199999999999996,15.899999999999999,54.75
0.7317073170731708,0.6097560975609757,-0.6707317073170732,0.09228515625,0.1640625,1.013671875,54.6,15.75,53.55
-1.0365853658536586,-0.30487804878048785,-1.3414634146341464,0.07763671875,0.16796875,1.0078125,53.4,15.0,55.65
-0.24390243902439027,-0.9146341463414634,1.9512195121951221,0.07666015625,0.17138671875,1.01904296875,53.85,15.0,56.1
-2.3170731707317076,0.12195121951219513,-1.5853658536585367,0.07763671875,0.17626953125,1.0126953125,52.949999999999996,14.85,54.75
-1.2804878048780488,0.7926829268292683,1.0365853658536586,0.083984375,0.16650390625,1.0205078125,53.85,15.45,54.6
1.3414634146341464,0.06097560975609757,-1.402439024390244,0.087890625,0.16943359375,1.013671875,53.1,15.0,53.1
-0.7317073170731708,2.378048780487805,-2.073170731707317,0.0693359375,0.16162109375,1.001953125,52.35,16.2,53.55
1.0975609756097562,-0.5487804878048781,0.0,0.08203125,0.17822265625,1.01123046875,54.0,15.6,54.449999999999996
1.0365853658536586,0.5487804878048781,1.9512195121951221,0.08935546875,0.1748046875,1.00927734375,53.25,14.1,53.699999999999996
2.5,0.48780487804878053,-0.3658536585365854,0.08154296875,0.17236328125,1.013671875,53.1,16.5,54.9
1.5853658536585367,2.682926829268293,1.3414634146341464,0.0693359375,0.1728515625,1.01953125,52.5,14.85,52.949999999999996
1.8902439024390245,2.25609756097561,0.9756097560975611,0.091796875,0.1689453125,1.02001953125,52.65,15.45,54.9
0.24390243902439027,1.7682926829268295,-1.1585365853658538,0.0888671875,0.17041015625,1.00341796875,53.25,15.6,53.699999999999996
-1.0365853658536586,0.6707317073170732,-1.2804878048780488,0.09130859375,0.166015625,1.01904296875,52.949999999999996,14.85,53.4
0.24390243902439027,0.30487804878048785,-1.829268292682927,0.083984375,0.17626953125,1.02294921875,52.65,15.45,53.85
1.7682926829268295,1.0975609756097562,1.402439024390244,0.09130859375,0.17919921875,1.01611328125,52.35,15.75,54.3
-0.12195121951219513,-0.1829268292682927,-2.439024390243903,0.08642578125,0.1845703125,1.01953125,54.3,15.149999999999999,54.449999999999996
-0.426829268292683,2.987804878048781,-1.5853658536585367,0.0859375,0.1728515625,1.0009765625,52.5,16.349999999999998,53.699999999999996
0.7926829268292683,1.8902439024390245,-2.1341463414634148,0.076171875,0.17822265625,1.017578125,52.949999999999996,16.349999999999998,53.699999999999996
1.829268292682927,2.073170731707317,-0.48780487804878053,0.0927734375,0.17578125,1.009765625,54.0,16.8,55.199999999999996
-0.30487804878048785,0.853658536585366,-3.658536585365854,0.10400390625,0.17529296875,1.0146484375,51.75,15.899999999999999,54.449999999999996
-1.9512195121951221,-0.426829268292683,-0.9756097560975611,0.08984375,0.1748046875,1.01416015625,53.55,14.85,54.0
-0.12195121951219513,2.073170731707317,-1.0365853658536586,0.08349609375,0.1748046875,1.0068359375,53.55,15.6,52.65
-0.30487804878048785,1.402439024390244,1.2195121951219514,0.10009765625,0.1650390625,1.00634765625,53.1,14.25,54.9
2.073170731707317,1.707317073170732,1.3414634146341464,0.10009765625,0.16650390625,1.0126953125,52.65,14.7,53.85
0.9756097560975611,0.9756097560975611,-0.7926829268292683,0.08203125,0.16650390625,1.01025390625,51.6,17.25,54.9
-0.48780487804878053,-0.6707317073170732,-1.8902439024390245,0.09375,0.18408203125,1.00830078125,53.25,14.1,54.0
-2.5609756097560976,2.378048780487805,-2.439024390243903,0.07470703125,0.17919921875,1.02197265625,53.4,14.7,54.6
0.0,3.048780487804878,0.5487804878048781,0.076171875,0.17236328125,1.02587890625,53.85,15.75,53.55
0.9756097560975611,3.2926829268292686,-0.1829268292682927,0.08349609375,0.18115234375,1.01806640625,54.6,15.45,53.85
-0.5487804878048781,1.5853658536585367,-0.6707317073170732,0.07763671875,0.17919921875,1.01513671875,53.25,15.899999999999999,54.75
-0.7317073170731708,0.6097560975609757,-1.1585365853658538,0.06884765625,0.1767578125,1.0078125,53.85,15.75,54.6
1.2195121951219514,0.30487804878048785,1.0365853658536586,0.07421875,0.16162109375,1.00830078125,53.1,15.45,54.6
0.1829268292682927,0.12195121951219513,-0.7926829268292683,0.08544921875,0.16796875,1.00830078125,52.35,15.45,53.1
-0.24390243902439027,0.9756097560975611,1.5853658536585367,0.09423828125,0.18017578125,0.99951171875,53.1,15.45,54.3
-0.7317073170731708,1.7682926829268295,-1.3414634146341464,0.0791015625,0.17919921875,1.01416015625,52.5,15.899999999999999,53.4
-0.6707317073170732,0.9146341463414634,-0.5487804878048781,0.0908203125,0.17724609375,1.0107421875,54.0,15.6,54.0
0.9146341463414634,1.5853658536585367,-3.414634146341464,0.08544921875,0.1796875,1.01904296875,53.55,15.6,53.4
1.0975609756097562,-0.12195121951219513,0.7926829268292683,0.0810546875,0.1611328125,1.0166015625,53.85,18.0,54.3
-0.6707317073170732,1.6463414634146343,0.9146341463414634,0.08154296875,0.16845703125,1.00830078125,53.25,14.85,54.75
0.0,2.073170731707317,-1.2804878048780488,0.06640625,0.169921875,1.009765625,54.3,15.899999999999999,54.0
1.7682926829268295,-0.7926829268292683,-0.30487804878048785,0.09619140625,0.18310546875,1.01025390625,53.25,15.899999999999999,52.65
0.06097560975609757,1.829268292682927,0.24390243902439027,0.08837890625,0.17138671875,1.00732421875,54.15,15.75,53.85
0.7317073170731708,3.536585365853659,1.0975609756097562,0.07763671875,0.1728515625,1.02685546875,53.1,15.45,52.8
1.524390243902439,-1.2804878048780488,1.2195121951219514,0.08740234375,0.1796875,1.001953125,53.1,17.7,53.85
1.402439024390244,0.1829268292682927,1.3414634146341464,0.0791015625,0.1650390625,1.0205078125,53.4,16.5,54.6
0.6707317073170732,0.6097560975609757,-1.707317073170732,0.091796875,0.1640625,1.01953125,53.4,16.2,54.3
1.707317073170732,0.853658536585366,1.0975609756097562,0.0751953125,0.17236328125,1.02099609375,52.65,16.5,54.6
-0.426829268292683,-2.1951219512195124,0.3658536585365854,0.08837890625,0.1640625,1.013671875,52.35,15.0,53.85
0.6707317073170732,2.378048780487805,-1.2804878048780488,0.095703125,0.18212890625,1.01123046875,53.4,15.45,53.85
0.06097560975609757,0.0,-0.1829268292682927,0.08837890625,0.1767578125,0.9951171875,54.0,15.899999999999999,53.699999999999996
-1.707317073170732,1.1585365853658538,0.48780487804878053,0.08544921875,0.1806640625,1.0205078125,52.65,14.25,53.55
1.0365853658536586,-2.073170731707317,1.3414634146341464,0.08447265625,0.17236328125,1.021484375,53.1,15.45,53.55
-0.6097560975609757,2.804878048780488,-0.6707317073170732,0.0849609375,0.1767578125,1.01513671875,53.85,16.2,54.3
0.1829268292682927,0.853658536585366,1.2804878048780488,0.0703125,0.1728515625,1.0244140625,51.6,15.45,54.3
1.707317073170732,1.5853658536585367,-1.9512195121951221,0.072265625,0.17822265625,1.0205078125,52.949999999999996,14.85,54.449999999999996
0.426829268292683,0.0,-0.12195121951219513,0.0859375,0.17822265625,1.015625,53.1,15.45,54.3
1.5853658536585367,2.073170731707317,-0.853658536585366,0.07958984375,0.17626953125,1.00830078125,51.9,16.2,53.85
-0.06097560975609757,-1.0975609756097562,0.7926829268292683,0.0751953125,0.16748046875,1.013671875,53.4,16.95,53.85
1.0365853658536586,1.1585365853658538,1.0975609756097562,0.08056640625,0.17236328125,1.02490234375,53.25,15.149999999999999,54.75
0.9146341463414634,0.3658536585365854,-0.48780487804878053,0.0732421875,0.17431640625,1.021484375,53.1,15.0,54.6
-0.30487804878048785,0.853658536585366,-1.8902439024390245,0.08154296875,0.1767578125,1.0146484375,53.25,15.899999999999999,54.75
-1.4634146341463417,-0.12195121951219513,-1.2195121951219514,0.0888671875,0.17431640625,1.009765625,53.25,16.8,53.699999999999996
-0.12195121951219513,0.426829268292683,-0.5487804878048781,0.072265625,0.18212890625,1.01904296875,53.1,15.75,53.85
0.30487804878048785,1.402439024390244,-0.30487804878048785,0.0810546875,0.1845703125,1.0068359375,52.949999999999996,16.349999999999998,52.949999999999996
-0.426829268292683,-1.6463414634146343,-1.707317073170732,0.08544921875,0.15576171875,1.013671875,52.949999999999996,14.85,54.75
-0.06097560975609757,1.6463414634146343,-2.3170731707317076,0.07861328125,0.18212890625,1.01220703125,53.25,14.1,55.8
-0.5487804878048781,1.402439024390244,-1.524390243902439,0.07275390625,0.1787109375,1.0146484375,53.85,15.75,53.55
0.9146341463414634,1.402439024390244,-2.8658536585365857,0.091796875,0.17041015625,1.00634765625,53.1,18.45,53.85
-1.4634146341463417,-0.24390243902439027,-0.7317073170731708,0.08154296875,0.1806640625,1.01708984375,51.9,14.7,54.3
-2.378048780487805,2.073170731707317,-2.1951219512195124,0.06982421875,0.16748046875,1.02392578125,53.1,16.2,54.9
1.1585365853658538,1.707317073170732,-1.524390243902439,0.08447265625,0.17822265625,1.01220703125,52.35,16.2,53.55
-1.3414634146341464,2.073170731707317,-0.12195121951219513,0.083984375,0.1650390625,1.02880859375,53.25,15.149999999999999,52.949999999999996
-1.707317073170732,1.0975609756097562,-3.1097560975609757,0.080078125,0.16162109375,1.0166015625,53.1,14.7,54.3
0.24390243902439027,4.085365853658537,0.9756097560975611,0.07763671875,0.1796875,1.01123046875,54.15,15.45,54.6
-0.24390243902439027,1.829268292682927,0.24390243902439027,0.076171875,0.16748046875,1.021484375,52.35,15.45,53.85
0.0,1.6463414634146343,-2.8658536585365857,0.0703125,0.18115234375,1.02197265625,54.3,17.099999999999998,54.449999999999996
2.0121951219512195,1.524390243902439,-0.1829268292682927,0.09521484375,0.173828125,1.01416015625,52.35,16.5,54.6
0.24390243902439027,-0.6707317073170732,-0.30487804878048785,0.0810546875,0.16943359375,1.01611328125,53.25,15.899999999999999,54.75
-0.5487804878048781,0.06097560975609757,0.30487804878048785,0.09033203125,0.16943359375,1.00927734375,53.85,15.0,54.6
-1.4634146341463417,-0.24390243902439027,-0.5487804878048781,0.0693359375,0.16943359375,1.01318359375,53.1,16.2,53.55
0.9756097560975611,0.9756097560975611,0.426829268292683,0.08447265625,0.17724609375,1.00830078125,53.25,15.6,55.199999999999996
-0.426829268292683,-0.853658536585366,-0.7317073170731708,0.0810546875,0.169921875,1.0185546875,54.0,15.899999999999999,52.949999999999996
2.073170731707317,-0.12195121951219513,0.48780487804878053,0.072265625,0.18701171875,1.01220703125,52.5,15.149999999999999,52.949999999999996
0.6097560975609757,3.4756097560975614,0.6097560975609757,0.078125,0.17822265625,1.01806640625,52.65,17.25,53.55
1.2804878048780488,1.4634146341463417,-0.853658536585366,0.08935546875,0.1728515625,1.0068359375,52.949999999999996,17.55,55.5
1.524390243902439,0.24390243902439027,0.24390243902439027,0.09228515625,0.158203125,1.0126953125,53.4,13.799999999999999,54.6
0.7317073170731708,0.1829268292682927,1.524390243902439,0.08740234375,0.16943359375,1.01416015625,52.65,15.0,53.85
0.7926829268292683,2.0121951219512195,-0.3658536585365854,0.0888671875,0.18896484375,1.0087890625,53.25,15.6,54.449999999999996
-0.30487804878048785,1.9512195121951221,-0.853658536585366,0.08349609375,0.1689453125,0.99560546875,52.35,15.45,53.55
1.1585365853658538,0.1829268292682927,0.0,0.08837890625,0.1845703125,1.02392578125,53.85,16.95,54.9
-0.1829268292682927,-0.48780487804878053,-1.707317073170732,0.087890625,0.1669921875,1.01123046875,52.5,16.349999999999998,54.449999999999996
0.48780487804878053,4.817073170731708,1.0975609756097562,0.0859375,0.18115234375,1.01806640625,53.1,16.2,54.3
-0.6097560975609757,1.0365853658536586,0.12195121951219513,0.08154296875,0.18017578125,1.015625,54.6,16.95,53.55
-1.0975609756097562,1.5853658536585367,-1.3414634146341464,0.087890625,0.17626953125,1.00244140625,54.0,14.85,56.25
0.6707317073170732,-0.12195121951219513,-1.707317073170732,0.06884765625,0.15869140625,1.013671875,53.55,15.899999999999999,53.699999999999996
0.6707317073170732,2.804878048780488,-0.6097560975609757,0.09326171875,0.1787109375,1.01953125,53.25,15.149999999999999,54.0
2.1341463414634148,1.402439024390244,-1.0975609756097562,0.076171875,0.1728515625,1.0146484375,53.4,16.2,53.55
-0.5487804878048781,0.9146341463414634,-1.7682926829268295,0.07080078125,0.169921875,1.02001953125,52.949999999999996,15.149999999999999,54.449999999999996
0.5487804878048781,1.0975609756097562,0.9146341463414634,0.0888671875,0.1767578125,1.01513671875,54.0,17.099999999999998,53.699999999999996
0.6707317073170732,2.5,-1.3414634146341464,0.08642578125,0.1689453125,1.0244140625,54.0,15.899999999999999,54.0
1.0365853658536586,1.5853658536585367,2.5,0.0888671875,0.17431640625,1.02294921875,52.949999999999996,16.349999999999998,53.699999999999996
1.5853658536585367,1.2195121951219514,1.2195121951219514,0.09619140625,0.1689453125,1.01708984375,52.65,15.0,53.55
-1.3414634146341464,1.0365853658536586,-0.24390243902439027,0.09033203125,0.16943359375,1.0224609375,53.25,15.149999999999999,53.4
0.3658536585365854,1.7682926829268295,-2.5609756097560976,0.08447265625,0.1806640625,1.00537109375,54.6,16.2,53.55
-0.06097560975609757,2.3170731707317076,-1.5853658536585367,0.07275390625,0.17529296875,1.01708984375,53.25,14.85,52.949999999999996
-0.5487804878048781,1.1585365853658538,0.3658536585365854,0.08837890625,0.18017578125,1.01806640625,53.25,14.85,53.4
0.06097560975609757,2.8658536585365857,-0.48780487804878053,0.06884765625,0.18603515625,1.0068359375,52.949999999999996,15.899999999999999,54.0
1.0365853658536586,1.0975609756097562,-2.1341463414634148,0.0888671875,0.1826171875,1.015625,54.6,15.75,53.55
1.5853658536585367,-0.12195121951219513,0.5487804878048781,0.091796875,0.17529296875,1.00341796875,52.5,15.6,54.75
0.0,0.48780487804878053,-0.6097560975609757,0.08154296875,0.16162109375,1.0126953125,54.0,15.6,52.949999999999996
-35.1219512195122,-9.26829268292683,-3.2926829268292686,0.0888671875,0.1083984375,0.89794921875,52.65,15.45,54.6
-9.146341463414634,0.06097560975609757,4.207317073170732,0.138671875,0.10791015625,0.96044921875,53.4,15.75,53.85
-18.475609756097562,0.7926829268292683,2.073170731707317,0.09228515625,0.12939453125,1.02490234375,53.55,15.149999999999999,55.5
20.79268292682927,-2.804878048780488,0.30487804878048785,0.076171875,0.16455078125,1.01708984375,54.0,15.149999999999999,55.199999999999996
2.25609756097561,0.3658536585365854,1.2804878048780488,0.07861328125,0.1796875,1.021484375,53.85,15.45,54.6
1.707317073170732,1.3414634146341464,-0.426829268292683,0.0849609375,0.17431640625,1.01416015625,53.1,15.0,52.8
-0.853658536585366,0.9756097560975611,0.24390243902439027,0.09326171875,0.16796875,0.9990234375,54.0,14.85,54.449999999999996
-1.402439024390244,-1.3414634146341464,-2.25609756097561,0.08984375,0.169921875,1.021484375,53.85,15.0,54.6
0.06097560975609757,1.0975609756097562,0.12195121951219513,0.078125,0.150390625,1.0166015625,53.85,13.799999999999999,53.85
-13.536585365853659,1.829268292682927,-2.25609756097561,0.07421875,0.16748046875,1.01513671875,53.25,14.85,53.699999999999996
-1.829268292682927,0.3658536585365854,0.06097560975609757,0.087890625,0.15869140625,1.01953125,53.1,15.0,54.3
2.3170731707317076,-0.30487804878048785,0.0,0.0810546875,0.17138671875,1.02001953125,53.85,16.2,54.6
1.9512195121951221,2.9268292682926833,-0.24390243902439027,0.1044921875,0.17626953125,1.02001953125,53.55,15.45,53.85
-1.8902439024390245,0.6707317073170732,-1.524390243902439,0.0751953125,0.162109375,1.01953125,53.1,15.0,54.3
-0.853658536585366,1.7682926829268295,1.7682926829268295,0.0830078125,0.16259765625,1.01953125,54.0,14.399999999999999,55.199999999999996
0.0,0.5487804878048781,1.5853658536585367,0.0849609375,0.1630859375,1.01416015625,52.65,15.45,54.3
-0.3658536585365854,0.6097560975609757,-0.6707317073170732,0.095703125,0.16552734375,1.0244140625,54.15,15.75,53.55
8.170731707317074,1.0365853658536586,-0.7317073170731708,0.076171875,0.1865234375,1.0283203125,52.949999999999996,16.349999999999998,53.699999999999996
-0.7926829268292683,1.402439024390244,0.6707317073170732,0.08740234375,0.181640625,1.0009765625,53.4,14.25,53.85
-11.76829268292683,4.695121951219512,1.707317073170732,0.0791015625,0.177734375,1.017578125,52.65,15.75,54.3
-0.7926829268292683,1.5853658536585367,0.3658536585365854,0.08447265625,0.171875,1.009765625,53.4,15.45,54.9
0.853658536585366,0.12195121951219513,-2.1341463414634148,0.072265625,0.15478515625,1.01123046875,52.5,15.149999999999999,54.0
0.24390243902439027,0.3658536585365854,-0.5487804878048781,0.07958984375,0.16748046875,1.015625,53.4,15.45,54.3
-0.9756097560975611,0.48780487804878053,-0.6707317073170732,0.0791015625,0.15966796875,1.0107421875,52.949999999999996,14.85,53.699999999999996
-0.30487804878048785,0.6097560975609757,-0.06097560975609757,0.0830078125,0.1689453125,1.0205078125,53.1,15.0,54.9
0.12195121951219513,0.6707317073170732,0.06097560975609757,0.0732421875,0.158203125,1.02197265625,54.3,14.85,55.199999999999996
-0.9146341463414634,1.6463414634146343,-0.3658536585365854,0.083984375,0.15234375,1.01953125,53.55,14.85,54.449999999999996
-0.9756097560975611,1.2804878048780488,0.853658536585366,0.07470703125,0.15771484375,1.021484375,53.25,15.6,53.699999999999996
-2.0121951219512195,1.0975609756097562,0.24390243902439027,0.07763671875,0.16015625,1.01318359375,52.199999999999996,14.399999999999999,54.75
-1.829268292682927,1.8902439024390245,-0.5487804878048781,0.08642578125,0.16748046875,1.013671875,54.15,15.45,54.3
-0.9756097560975611,2.3170731707317076,0.3658536585365854,0.0869140625,0.16015625,1.0146484375,53.4,15.0,55.35
0.6097560975609757,-0.6707317073170732,1.2195121951219514,0.0888671875,0.16796875,1.00634765625,53.55,15.149999999999999,54.449999999999996
0.06097560975609757,1.3414634146341464,-0.24390243902439027,0.08642578125,0.16943359375,1.01904296875,53.85,14.7,53.1
0.9756097560975611,1.2195121951219514,-0.6707317073170732,0.08544921875,0.17626953125,1.0185546875,52.5,14.399999999999999,55.5
-1.0975609756097562,2.1341463414634148,-1.2804878048780488,0.07861328125,0.173828125,1.01904296875,52.949999999999996,15.6,53.4
-0.426829268292683,-0.12195121951219513,1.0975609756097562,0.09326171875,0.1728515625,1.00830078125,53.25,14.399999999999999,54.449999999999996
-0.426829268292683,1.402439024390244,-1.5853658536585367,0.0888671875,0.15185546875,1.0224609375,52.199999999999996,14.399999999999999,53.4
-0.9146341463414634,1.707317073170732,1.707317073170732,0.06396484375,0.1630859375,1.0205078125,53.55,15.149999999999999,55.199999999999996
-2.8658536585365857,1.707317073170732,2.804878048780488,0.08642578125,0.16845703125,1.0185546875,54.0,15.149999999999999,54.0
-0.426829268292683,-1.2804878048780488,-0.1829268292682927,0.0830078125,0.1650390625,1.015625,53.1,13.799999999999999,54.6
-0.9756097560975611,2.6219512195121952,-0.48780487804878053,0.0703125,0.1572265625,1.017578125,52.65,15.45,53.1
-1.524390243902439,1.4634146341463417,-2.7439024390243905,0.07861328125,0.16064453125,1.0205078125,54.3,15.6,54.449999999999996
-2.0121951219512195,1.4634146341463417,-0.12195121951219513,0.0751953125,0.14892578125,1.01123046875,54.75,14.1,53.699999999999996
-1.0975609756097562,1.0365853658536586,-1.0975609756097562,0.0771484375,0.17041015625,1.01708984375,54.3,15.149999999999999,55.199999999999996
0.5487804878048781,0.12195121951219513,-1.9512195121951221,0.0732421875,0.1728515625,1.01904296875,54.15,13.799999999999999,53.85
1.2195121951219514,1.6463414634146343,1.707317073170732,0.07666015625,0.16748046875,1.0205078125,54.15,15.0,53.85
-0.7926829268292683,0.853658536585366,-0.1829268292682927,0.0830078125,0.15625,1.02294921875,53.25,14.399999999999999,53.699999999999996
1.2804878048780488,0.853658536585366,2.6219512195121952,0.08251953125,0.16015625,1.01904296875,52.65,13.799999999999999,53.1
0.5487804878048781,1.4634146341463417,0.1829268292682927,0.08447265625,0.1572265625,1.0322265625,53.1,15.0,54.3
1.5853658536585367,0.7926829268292683,-1.0365853658536586,0.07568359375,0.16650390625,1.029296875,54.0,14.85,54.75
-1.2195121951219514,1.8902439024390245,-0.5487804878048781,0.07666015625,0.17431640625,1.01708984375,54.6,15.45,54.3
6.829268292682928,-0.6707317073170732,-2.25609756097561,0.072265625,0.16015625,1.0107421875,53.55,15.149999999999999,54.0
-2.987804878048781,-0.5487804878048781,0.06097560975609757,0.07275390625,0.15087890625,1.021484375,52.35,13.799999999999999,53.85
-0.9146341463414634,1.2195121951219514,-0.6707317073170732,0.080078125,0.16796875,1.0205078125,52.949999999999996,14.85,54.449999999999996
1.2804878048780488,2.6219512195121952,0.48780487804878053,0.0830078125,0.158203125,1.02001953125,53.4,14.25,54.9
-2.7439024390243905,2.987804878048781,-1.5853658536585367,0.07421875,0.16943359375,1.01025390625,54.3,15.6,55.5
2.439024390243903,0.7926829268292683,0.06097560975609757,0.07861328125,0.1552734375,1.01513671875,51.6,15.45,53.55
2.25609756097561,0.5487804878048781,1.707317073170732,0.07861328125,0.16015625,1.0205078125,54.0,14.85,54.0
-0.24390243902439027,0.30487804878048785,-0.06097560975609757,0.08447265625,0.17041015625,1.0185546875,54.15,13.049999999999999,55.65
-0.30487804878048785,0.7926829268292683,0.30487804878048785,0.0693359375,0.16943359375,1.01123046875,54.15,15.0,55.35
2.6219512195121952,-0.48780487804878053,2.682926829268293,0.0712890625,0.15576171875,1.01513671875,54.0,14.85,54.0
-0.3658536585365854,-0.3658536585365854,-2.7439024390243905,0.080078125,0.1611328125,1.01611328125,53.4,13.5,53.85
0.1829268292682927,2.073170731707317,0.6097560975609757,0.08447265625,0.16650390625,1.0205078125,54.6,14.7,53.55
-0.12195121951219513,1.829268292682927,-0.06097560975609757,0.0693359375,0.162109375,1.025390625,54.0,16.349999999999998,54.0
-0.9756097560975611,2.987804878048781,-1.707317073170732,0.0732421875,0.1708984375,1.02490234375,53.1,14.7,53.85
-0.7926829268292683,0.5487804878048781,-1.6463414634146343,0.07568359375,0.1689453125,1.01904296875,53.85,15.0,54.6
-1.9512195121951221,3.9024390243902443,0.3658536585365854,0.0966796875,0.16650390625,1.0166015625,54.15,15.75,54.3
1.707317073170732,1.1585365853658538,-0.9146341463414634,0.07958984375,0.15478515625,1.0185546875,54.75,15.6,52.65
-0.5487804878048781,1.4634146341463417,-0.6097560975609757,0.07275390625,0.15869140625,1.0078125,55.35,15.45,53.55
-2.073170731707317,-0.7926829268292683,0.12195121951219513,0.07470703125,0.1630859375,1.02587890625,54.15,15.75,53.85
2.1951219512195124,1.5853658536585367,-1.1585365853658538,0.07763671875,0.15576171875,1.02490234375,52.65,15.45,54.6
-1.2195121951219514,0.0,-1.5853658536585367,0.08056640625,0.158203125,1.01416015625,53.1,15.75,54.3
1.6463414634146343,-2.25609756097561,-0.1829268292682927,0.07861328125,0.16357421875,1.01611328125,53.25,14.399999999999999,55.199999999999996
-0.3658536585365854,2.1341463414634148,1.707317073170732,0.0693359375,0.1513671875,1.015625,53.1,15.75,53.1
-1.9512195121951221,1.402439024390244,-1.8902439024390245,0.0673828125,0.15380859375,1.01513671875,52.5,15.6,55.5
1.707317073170732,1.0975609756097562,0.0,0.078125,0.1533203125,1.01904296875,53.85,14.25,54.6
-0.24390243902439027,2.8658536585365857,1.7682926829268295,0.08349609375,0.15771484375,1.0205078125,53.25,14.85,54.75
1.2195121951219514,-0.853658536585366,-1.2804878048780488,0.08203125,0.15380859375,1.0107421875,52.949999999999996,15.899999999999999,54.449999999999996
1.1585365853658538,-0.06097560975609757,0.853658536585366,0.091796875,0.16064453125,1.01513671875,53.1,14.25,54.6
1.8902439024390245,0.7926829268292683,-0.7926829268292683,0.06982421875,0.15966796875,1.0126953125,53.25,14.85,54.449999999999996
0.6707317073170732,3.9024390243902443,-0.6097560975609757,0.08203125,0.14501953125,1.01416015625,53.85,15.75,54.6
-1.2804878048780488,1.1585365853658538,1.3414634146341464,0.08837890625,0.15478515625,1.017578125,53.4,15.75,53.85
2.25609756097561,1.829268292682927,0.426829268292683,0.06103515625,0.15869140625,1.0234375,53.55,14.399999999999999,55.5
-0.24390243902439027,3.1707317073170733,-1.5853658536585367,0.08544921875,0.15576171875,1.02392578125,53.55,15.6,54.449999999999996
-1.829268292682927,0.0,-2.439024390243903,0.07958984375,0.1611328125,1.01416015625,52.5,15.6,53.699999999999996
2.0121951219512195,1.829268292682927,-1.402439024390244,0.08203125,0.1689453125,1.0224609375,53.85,14.7,53.85
-0.5487804878048781,-0.5487804878048781,-0.3658536585365854,0.0859375,0.158203125,1.02099609375,53.85,14.25,53.55
0.7317073170731708,1.524390243902439,0.0,0.0791015625,0.16845703125,1.0244140625,54.0,14.1,52.65
1.707317073170732,1.402439024390244,-1.0365853658536586,0.0732421875,0.15869140625,1.0205078125,54.6,15.45,55.65
0.7926829268292683,0.1829268292682927,-2.5,0.08203125,0.15185546875,1.00634765625,53.1,14.25,52.8
2.378048780487805,2.1341463414634148,-0.3658536585365854,0.07470703125,0.1630859375,1.02099609375,53.4,15.75,54.3
0.30487804878048785,1.1585365853658538,0.3658536585365854,0.0791015625,0.16748046875,1.02490234375,54.15,13.799999999999999,53.55
-1.0365853658536586,1.1585365853658538,-0.6097560975609757,0.07861328125,0.14990234375,1.017578125,53.1,15.0,54.3
-0.6097560975609757,4.329268292682928,-0.9146341463414634,0.08642578125,0.15673828125,1.017578125,52.5,15.149999999999999,54.449999999999996
0.7926829268292683,3.1707317073170733,-0.12195121951219513,0.078125,0.16748046875,1.01220703125,53.55,13.65,54.449999999999996
0.0,1.2195121951219514,0.0,0.060546875,0.1640625,1.02685546875,53.1,14.25,55.35
-0.1829268292682927,2.1341463414634148,-0.1829268292682927,0.072265625,0.1640625,1.02490234375,53.85,15.0,54.9
1.402439024390244,0.5487804878048781,1.3414634146341464,0.07080078125,0.15234375,1.01220703125,53.55,14.85,54.449999999999996
1.0975609756097562,2.1951219512195124,-0.30487804878048785,0.0771484375,0.1640625,1.015625,53.25,13.65,53.699999999999996
-0.48780487804878053,0.48780487804878053,-0.06097560975609757,0.080078125,0.16357421875,1.01171875,54.0,15.149999999999999,54.449999999999996
-1.0365853658536586,1.9512195121951221,-0.7926829268292683,0.06787109375,0.1533203125,1.00927734375,53.85,13.5,54.9
0.06097560975609757,0.6707317073170732,-1.8902439024390245,0.0751953125,0.166015625,1.017578125,53.25,15.149999999999999,53.699999999999996
-2.5,-0.06097560975609757,-0.48780487804878053,0.0771484375,0.1572265625,1.0234375,53.25,14.399999999999999,54.75
0.24390243902439027,1.9512195121951221,0.48780487804878053,0.0673828125,0.169921875,1.02392578125,53.85,15.75,53.85
-0.5487804878048781,0.48780487804878053,1.524390243902439,0.07958984375,0.16162109375,1.01123046875,53.85,13.799999999999999,54.3
1.3414634146341464,0.48780487804878053,0.6707317073170732,0.06982421875,0.1552734375,1.0068359375,54.6,14.25,53.85
-0.1829268292682927,-0.6097560975609757,1.402439024390244,0.0810546875,0.15478515625,1.0185546875,53.55,15.149999999999999,53.699999999999996
0.24390243902439027,1.0975609756097562,-1.0365853658536586,0.068359375,0.16064453125,1.00732421875,54.3,14.85,54.449999999999996
0.30487804878048785,1.8902439024390245,-0.24390243902439027,0.07275390625,0.154296875,1.013671875,53.1,15.75,54.9
1.1585365853658538,1.5853658536585367,-1.1585365853658538,0.083984375,0.16162109375,1.00927734375,54.75,14.85,54.0
-0.48780487804878053,1.829268292682927,-2.682926829268293,0.07861328125,0.16259765625,1.0224609375,52.5,15.899999999999999,54.0
-0.30487804878048785,1.6463414634146343,-2.1951219512195124,0.08056640625,0.15576171875,1.013671875,54.75,15.149999999999999,54.75
0.30487804878048785,-0.7926829268292683,-2.3170731707317076,0.06494140625,0.16064453125,1.02001953125,53.4,15.75,55.65
0.24390243902439027,-1.2804878048780488,0.7926829268292683,0.078125,0.158203125,1.02294921875,54.6,14.25,53.55
-0.7317073170731708,0.48780487804878053,-0.6097560975609757,0.076171875,0.1650390625,1.0166015625,53.1,16.5,54.9
-1.2195121951219514,1.524390243902439,-1.2195121951219514,0.08837890625,0.1572265625,1.01171875,52.949999999999996,16.8,54.449999999999996
-1.1585365853658538,2.25609756097561,-1.4634146341463417,0.08447265625,0.16015625,1.02783203125,53.85,14.7,55.35
-0.7926829268292683,1.2195121951219514,-0.6097560975609757,0.0859375,0.16064453125,1.02587890625,52.65,16.2,53.1
-1.402439024390244,0.9756097560975611,-2.1341463414634148,0.0791015625,0.15087890625,1.01318359375,53.1,14.7,54.3
0.7926829268292683,-1.2804878048780488,1.829268292682927,0.068359375,0.1689453125,1.013671875,53.25,14.1,52.949999999999996
0.3658536585365854,-0.7926829268292683,1.2804878048780488,0.07666015625,0.162109375,1.01318359375,53.25,15.149999999999999,53.699999999999996
0.1829268292682927,0.7926829268292683,0.30487804878048785,0.078125,0.16015625,1.01513671875,54.9,14.7,55.65
1.0975609756097562,1.707317073170732,1.1585365853658538,0.07470703125,0.1552734375,1.0029296875,53.4,14.7,53.85
0.06097560975609757,1.8902439024390245,0.3658536585365854,0.0732421875,0.15576171875,1.0234375,54.75,14.399999999999999,55.8
3.4756097560975614,0.24390243902439027,-0.9146341463414634,0.08984375,0.1513671875,1.00732421875,54.15,15.0,53.85
-1.402439024390244,2.25609756097561,2.0121951219512195,0.0703125,0.15771484375,1.02001953125,53.85,14.7,54.6
11.402439024390246,-1.829268292682927,-5.060975609756098,0.0712890625,0.12646484375,1.0322265625,54.6,14.7,53.85
1.9512195121951221,-0.7926829268292683,-1.6463414634146343,0.0888671875,0.16455078125,1.00341796875,53.25,14.1,55.199999999999996
-1.0365853658536586,0.6097560975609757,4.146341463414634,0.0712890625,0.16259765625,1.01171875,53.1,15.0,54.3
-4.634146341463415,3.414634146341464,-1.4634146341463417,0.08349609375,0.16552734375,1.0185546875,53.55,14.399999999999999,54.75
-2.6219512195121952,2.378048780487805,-3.048780487804878,0.08154296875,0.158203125,1.02783203125,52.65,14.25,53.55
1.3414634146341464,1.8902439024390245,-3.048780487804878,0.08740234375,0.15673828125,1.01806640625,52.65,15.75,53.1
0.0,0.7317073170731708,-0.426829268292683,0.07421875,0.15771484375,1.01025390625,54.0,15.6,55.199999999999996
0.30487804878048785,2.3170731707317076,-0.1829268292682927,0.0771484375,0.15966796875,1.0146484375,53.55,14.399999999999999,54.0
0.426829268292683,0.3658536585365854,0.06097560975609757,0.07861328125,0.16064453125,1.00439453125,54.0,15.149999999999999,55.8
2.0121951219512195,1.5853658536585367,-0.06097560975609757,0.08251953125,0.14306640625,1.0263671875,53.4,14.7,54.3
-0.7317073170731708,1.2195121951219514,-0.6097560975609757,0.06787109375,0.15673828125,1.0068359375,53.25,14.85,55.5
0.06097560975609757,-1.0365853658536586,-2.0121951219512195,0.0869140625,0.15673828125,1.0087890625,53.55,13.35,54.0
1.0975609756097562,2.0121951219512195,0.9146341463414634,0.078125,0.1591796875,1.0234375,53.55,15.149999999999999,54.449999999999996
-1.3414634146341464,4.207317073170732,0.12195121951219513,0.068359375,0.15625,1.0185546875,54.9,15.45,54.9
-0.5487804878048781,1.2804878048780488,-2.439024390243903,0.07080078125,0.15380859375,1.02490234375,53.4,13.049999999999999,54.3
-0.7926829268292683,2.8658536585365857,0.06097560975609757,0.064453125,0.1630859375,1.02734375,53.85,15.0,54.6
0.426829268292683,1.0975609756097562,0.06097560975609757,0.09130859375,0.15771484375,1.01513671875,53.85,15.0,52.8
-0.5487804878048781,2.1951219512195124,-0.9756097560975611,0.08349609375,0.15380859375,1.01416015625,52.65,15.45,54.6
2.5,1.2195121951219514,-0.7317073170731708,0.07421875,0.14453125,1.0283203125,55.05,14.85,53.1
1.2195121951219514,1.8902439024390245,0.24390243902439027,0.0732421875,0.138671875,1.01513671875,53.4,14.7,54.6
-0.30487804878048785,1.8902439024390245,-0.853658536585366,0.08203125,0.15869140625,1.0107421875,53.85,14.25,53.85
2.3170731707317076,0.7926829268292683,-1.5853658536585367,0.0712890625,0.158203125,1.01318359375,53.4,14.25,54.3
0.5487804878048781,1.2195121951219514,-0.48780487804878053,0.08447265625,0.14794921875,1.015625,53.1,15.45,55.65
1.524390243902439,-0.6707317073170732,0.6707317073170732,0.08154296875,0.15283203125,1.0205078125,53.25,15.6,53.699999999999996
5.853658536585367,0.30487804878048785,1.7682926829268295,0.07080078125,0.18505859375,1.00732421875,53.25,15.149999999999999,55.199999999999996
158.90243902439025,25.365853658536587,-48.90243902439025,0.4189453125,0.0712890625,1.07275390625,53.4,15.75,53.85
-1.0365853658536586,0.7317073170731708,0.30487804878048785,0.064453125,0.22998046875,1.017578125,53.85,18.0,52.05
-15.182926829268293,-1.829268292682927,29.634146341463417,-0.01806640625,0.1767578125,0.998046875,52.949999999999996,15.899999999999999,52.199999999999996
0.426829268292683,1.524390243902439,1.2195121951219514,0.09375,0.240234375,1.0029296875,54.0,17.099999999999998,51.449999999999996
2.378048780487805,0.30487804878048785,3.2926829268292686,0.05810546875,0.26416015625,1.02294921875,53.25,17.849999999999998,51.449999999999996
-0.3658536585365854,1.829268292682927,1.829268292682927,0.09033203125,0.2421875,1.01904296875,53.25,17.55,52.65
1.4634146341463417,1.2804878048780488,0.3658536585365854,0.02587890625,0.25439453125,1.03857421875,52.949999999999996,17.849999999999998,52.199999999999996
0.24390243902439027,1.8902439024390245,-1.8902439024390245,0.0791015625,0.2236328125,0.99462890625,52.35,17.25,52.35
0.24390243902439027,1.7682926829268295,1.2804878048780488,0.068359375,0.224609375,1.0048828125,53.1,16.95,52.05
2.25609756097561,3.414634146341464,0.3658536585365854,0.06396484375,0.22216796875,1.00830078125,52.65,18.45,51.75
-0.12195121951219513,1.4634146341463417,0.0,0.06787109375,0.23046875,1.013671875,53.25,16.349999999999998,52.199999999999996
0.7926829268292683,0.30487804878048785,-0.9756097560975611,0.0771484375,0.22705078125,1.00732421875,52.199999999999996,17.849999999999998,52.949999999999996
-1.707317073170732,2.378048780487805,-1.8902439024390245,0.07177734375,0.22607421875,0.9931640625,52.949999999999996,17.55,51.9
0.9146341463414634,2.6219512195121952,0.6707317073170732,0.083984375,0.22119140625,1.00634765625,53.55,15.899999999999999,52.949999999999996
0.7926829268292683,0.5487804878048781,0.48780487804878053,0.0771484375,0.2255859375,1.00634765625,53.25,17.099999999999998,53.4
-0.06097560975609757,2.1341463414634148,0.6707317073170732,0.0654296875,0.22607421875,0.99365234375,52.35,17.7,52.05
1.3414634146341464,2.378048780487805,-0.24390243902439027,0.0703125,0.22705078125,1.00732421875,52.35,16.2,53.1
1.2804878048780488,1.4634146341463417,0.9146341463414634,0.0791015625,0.2158203125,1.0029296875,52.199999999999996,16.8,51.15
-0.426829268292683,1.6463414634146343,1.9512195121951221,0.0751953125,0.2275390625,1.0048828125,53.1,16.2,53.85
-0.30487804878048785,1.2195121951219514,-0.853658536585366,0.07958984375,0.22509765625,1.0087890625,52.199999999999996,17.099999999999998,52.949999999999996
0.6707317073170732,0.7926829268292683,-1.2195121951219514,0.0927734375,0.24267578125,1.005859375,52.65,16.95,52.8
-0.1829268292682927,2.5609756097560976,-0.1829268292682927,0.08251953125,0.224609375,1.00048828125,53.25,16.349999999999998,53.699999999999996
1.2195121951219514,1.6463414634146343,-0.6097560975609757,0.06884765625,0.2353515625,1.01171875,54.0,16.8,51.9
-0.9146341463414634,0.12195121951219513,0.6707317073170732,0.07177734375,0.22119140625,0.99853515625,53.1,17.25,53.1
0.426829268292683,0.24390243902439027,-0.7926829268292683,0.0673828125,0.21728515625,0.99853515625,52.949999999999996,17.849999999999998,51.9
-1.0975609756097562,-1.9512195121951221,-1.3414634146341464,0.07177734375,0.22900390625,1.0107421875,53.25,17.55,52.949999999999996
1.829268292682927,2.073170731707317,-0.3658536585365854,0.0703125,0.228515625,1.0048828125,53.85,16.5,52.05
0.853658536585366,0.9146341463414634,1.0365853658536586,0.0751953125,0.2138671875,1.00341796875,53.4,16.5,52.8
-0.7317073170731708,0.24390243902439027,1.4634146341463417,0.080078125,0.2236328125,1.00830078125,52.949999999999996,16.8,53.4
2.0121951219512195,0.1829268292682927,-2.7439024390243905,0.0771484375,0.22607421875,1.001953125,51.9,16.2,52.05
0.1829268292682927,2.8658536585365857,-1.4634146341463417,0.07177734375,0.21484375,0.99365234375,53.55,17.849999999999998,51.449999999999996
-2.439024390243903,1.829268292682927,-0.853658536585366,0.07568359375,0.22705078125,0.99658203125,53.85,16.5,52.05
1.3414634146341464,1.8902439024390245,-0.7317073170731708,0.076171875,0.2158203125,1.00341796875,53.1,15.75,52.35
0.48780487804878053,-1.402439024390244,-1.0975609756097562,0.0712890625,0.220703125,0.99462890625,53.55,17.099999999999998,53.699999999999996
0.9756097560975611,2.378048780487805,0.3658536585365854,0.080078125,0.2158203125,0.990234375,53.1,16.2,52.35
-1.5853658536585367,1.0975609756097562,-0.06097560975609757,0.0732421875,0.21533203125,0.9990234375,53.25,16.8,51.9
0.9146341463414634,2.073170731707317,0.7317073170731708,0.07470703125,0.2158203125,1.0029296875,52.5,16.8,51.9
-0.06097560975609757,1.4634146341463417,1.9512195121951221,0.0615234375,0.21826171875,0.9970703125,52.65,15.75,52.35
0.7926829268292683,1.2195121951219514,0.426829268292683,0.0673828125,0.23193359375,1.0087890625,52.35,17.25,52.8
-1.0975609756097562,-0.24390243902439027,-0.3658536585365854,0.07470703125,0.21484375,1.0048828125,52.65,16.5,53.1
-1.1585365853658538,1.6463414634146343,-0.5487804878048781,0.06201171875,0.21923828125,1.00146484375,53.4,15.0,52.8
2.6219512195121952,2.5609756097560976,-0.426829268292683,0.07421875,0.22412109375,0.9912109375,52.65,16.5,51.75
1.0365853658536586,0.1829268292682927,-1.707317073170732,0.072265625,0.2109375,1.00927734375,53.4,17.25,53.55
-0.9146341463414634,0.24390243902439027,-0.1829268292682927,0.0751953125,0.2333984375,1.0087890625,54.15,17.25,52.05
-0.9146341463414634,2.3170731707317076,0.30487804878048785,0.06787109375,0.22509765625,1.01806640625,53.55,17.849999999999998,52.199999999999996
1.1585365853658538,0.3658536585365854,0.06097560975609757,0.0810546875,0.2275390625,0.99755859375,54.6,16.95,52.8
-1.6463414634146343,1.0365853658536586,-1.2804878048780488,0.080078125,0.21337890625,1.01318359375,52.949999999999996,16.349999999999998,52.65
-0.3658536585365854,1.3414634146341464,0.1829268292682927,0.0634765625,0.22119140625,0.9892578125,53.4,16.95,53.1
-0.7317073170731708,1.402439024390244,-0.7317073170731708,0.06884765625,0.22607421875,1.00048828125,53.55,17.55,53.699999999999996
0.426829268292683,1.9512195121951221,1.524390243902439,0.06103515625,0.228515625,0.99755859375,53.1,16.5,52.8
0.6097560975609757,-0.3658536585365854,2.8658536585365857,0.07177734375,0.23828125,1.0068359375,53.55,17.099999999999998,52.949999999999996
-0.1829268292682927,0.7926829268292683,0.06097560975609757,0.0771484375,0.2158203125,0.998046875,51.9,16.2,54.3
-0.7317073170731708,-1.5853658536585367,1.4634146341463417,0.07958984375,0.2177734375,1.00146484375,51.75,17.55,52.199999999999996
0.6097560975609757,0.6707317073170732,0.853658536585366,0.07275390625,0.21923828125,1.009765625,53.4,18.0,52.35
-1.5853658536585367,1.2195121951219514,-0.06097560975609757,0.0771484375,0.2177734375,1.00830078125,52.5,15.6,53.4
-0.12195121951219513,3.536585365853659,-1.0365853658536586,0.07470703125,0.2177734375,0.99609375,53.4,16.95,52.8
1.7682926829268295,-0.12195121951219513,-1.6463414634146343,0.07666015625,0.240234375,1.0126953125,53.1,16.5,53.1
-1.707317073170732,1.3414634146341464,-1.524390243902439,0.06689453125,0.22900390625,0.994140625,52.5,16.8,52.949999999999996
-0.1829268292682927,1.402439024390244,-1.7682926829268295,0.0751953125,0.224609375,1.00537109375,52.199999999999996,16.349999999999998,51.9
-1.0975609756097562,1.829268292682927,-1.707317073170732,0.0771484375,0.23095703125,1.01025390625,53.85,17.25,51.75
-1.5853658536585367,1.1585365853658538,1.2195121951219514,0.07568359375,0.232421875,0.998046875,53.25,15.6,51.449999999999996
1.707317073170732,2.25609756097561,2.804878048780488,0.07568359375,0.21826171875,1.0107421875,53.1,17.25,52.05
-0.5487804878048781,-0.426829268292683,1.524390243902439,0.076171875,0.22412109375,1.001953125,53.1,16.95,51.75
-0.12195121951219513,-2.378048780487805,-0.426829268292683,0.08056640625,0.22216796875,1.0078125,53.4,16.5,51.75
-0.426829268292683,-0.853658536585366,3.1707317073170733,0.08544921875,0.224609375,1.00341796875,53.1,16.95,50.25
0.5487804878048781,0.1829268292682927,-0.426829268292683,0.07666015625,0.22802734375,1.0234375,53.55,16.8,52.199999999999996
-1.5853658536585367,0.9146341463414634,-0.5487804878048781,0.08251953125,0.22509765625,1.00634765625,51.75,17.099999999999998,52.65
0.5487804878048781,0.3658536585365854,-0.5487804878048781,0.07421875,0.21826171875,0.99755859375,52.65,17.7,53.1
1.524390243902439,1.2195121951219514,1.7682926829268295,0.08056640625,0.24169921875,0.99853515625,53.25,16.8,52.199999999999996
2.6219512195121952,2.1341463414634148,-0.12195121951219513,0.06787109375,0.21484375,1.013671875,54.3,15.899999999999999,51.9
-0.7317073170731708,-1.2195121951219514,0.48780487804878053,0.07080078125,0.21337890625,1.00927734375,54.75,16.8,52.949999999999996
0.1829268292682927,1.2195121951219514,1.0365853658536586,0.06494140625,0.21826171875,0.99755859375,53.1,16.5,53.1
-0.7926829268292683,0.7317073170731708,1.2195121951219514,0.06982421875,0.22216796875,1.005859375,52.35,16.95,54.3
0.0,2.3170731707317076,2.3170731707317076,0.07373046875,0.2275390625,1.0087890625,54.3,17.849999999999998,52.65
0.7317073170731708,1.2804878048780488,1.707317073170732,0.080078125,0.23388671875,1.0,54.0,16.8,52.199999999999996
-1.3414634146341464,2.3170731707317076,-0.9756097560975611,0.07373046875,0.22265625,1.01025390625,53.25,17.099999999999998,52.949999999999996
-0.06097560975609757,1.524390243902439,-0.06097560975609757,0.06689453125,0.22802734375,1.00634765625,52.65,16.2,54.3
1.0975609756097562,1.5853658536585367,0.853658536585366,0.0703125,0.22314453125,1.00537109375,54.15,16.2,52.05
-4.451219512195122,-3.1707317073170733,-2.1341463414634148,0.09912109375,0.1484375,0.96484375,53.85,16.95,52.35
1.3414634146341464,0.7926829268292683,-0.24390243902439027,0.03955078125,0.212890625,0.966796875,53.1,16.95,52.35
0.853658536585366,1.0975609756097562,-2.0121951219512195,0.07080078125,0.22607421875,0.99755859375,53.1,16.95,53.1
0.24390243902439027,-1.402439024390244,-1.2195121951219514,0.07861328125,0.23046875,0.99365234375,52.949999999999996,17.849999999999998,54.0
-2.0121951219512195,1.402439024390244,-2.5,0.0712890625,0.21923828125,0.99609375,53.4,17.7,51.3
-0.48780487804878053,2.3170731707317076,-2.073170731707317,0.083984375,0.2265625,1.009765625,53.25,17.55,52.65
1.2195121951219514,1.524390243902439,0.12195121951219513,0.080078125,0.21826171875,1.005859375,54.0,17.55,52.949999999999996
-0.30487804878048785,0.48780487804878053,0.853658536585366,0.0791015625,0.21435546875,1.00830078125,53.4,16.5,51.75
2.073170731707317,-1.524390243902439,0.6707317073170732,0.07080078125,0.2099609375,1.01220703125,52.65,16.2,52.8
2.378048780487805,0.426829268292683,-0.30487804878048785,0.07080078125,0.22412109375,1.00341796875,52.949999999999996,17.55,52.65
0.24390243902439027,4.024390243902439,0.24390243902439027,0.0830078125,0.224609375,1.0029296875,53.85,16.5,52.8
1.4634146341463417,-0.426829268292683,0.06097560975609757,0.07177734375,0.22021484375,1.0029296875,52.949999999999996,16.8,52.199999999999996
-0.426829268292683,0.7317073170731708,-1.2804878048780488,0.08544921875,0.22412109375,1.0126953125,52.5,17.099999999999998,52.949999999999996
-0.06097560975609757,-0.3658536585365854,2.25609756097561,0.0703125,0.22216796875,1.0078125,51.15,17.25,53.55
1.707317073170732,-0.6097560975609757,0.0,0.068359375,0.2109375,1.00390625,53.4,16.5,52.05
-1.402439024390244,0.3658536585365854,0.30487804878048785,0.07861328125,0.22705078125,1.015625,53.1,17.25,52.8
-1.0365853658536586,1.6463414634146343,0.6097560975609757,0.078125,0.21923828125,1.01513671875,51.449999999999996,17.099999999999998,51.449999999999996
1.707317073170732,-1.2195121951219514,-2.7439024390243905,0.0791015625,0.22509765625,1.0,53.85,16.5,53.1
0.3658536585365854,1.1585365853658538,0.9756097560975611,0.0751953125,0.2294921875,1.01611328125,52.65,16.95,52.35
-2.0121951219512195,-0.30487804878048785,1.0975609756097562,0.078125,0.22607421875,0.9931640625,52.949999999999996,17.55,52.949999999999996
0.0,1.6463414634146343,-0.3658536585365854,0.08349609375,0.2236328125,1.005859375,51.9,16.95,52.05
-0.9146341463414634,-0.5487804878048781,-1.0975609756097562,0.07421875,0.2294921875,1.00732421875,52.949999999999996,17.099999999999998,53.699999999999996
0.12195121951219513,-1.3414634146341464,-0.9146341463414634,0.0751953125,0.224609375,1.0048828125,53.1,17.7,53.1
1.524390243902439,-0.6097560975609757,-0.6097560975609757,0.072265625,0.22705078125,1.00048828125,53.85,16.95,51.75
-0.7926829268292683,-0.1829268292682927,0.426829268292683,0.07177734375,0.22900390625,1.00048828125,52.199999999999996,17.55,51.449999999999996
1.0365853658536586,1.524390243902439,-0.9146341463414634,0.07275390625,0.2275390625,1.00927734375,51.9,18.0,51.0
-0.24390243902439027,1.4634146341463417,0.24390243902439027,0.06884765625,0.2236328125,1.00146484375,53.25,16.8,51.449999999999996
1.0365853658536586,-2.378048780487805,-1.7682926829268295,0.08447265625,0.224609375,1.0029296875,52.5,16.8,52.199999999999996
2.378048780487805,1.2195121951219514,0.9146341463414634,0.08203125,0.22802734375,1.0009765625,53.1,16.5,52.35
-32.31707317073171,-21.03658536585366,-13.536585365853659,0.27783203125,0.0302734375,0.9736328125,54.15,16.95,51.3
-1.7682926829268295,-20.30487804878049,-195.00000000000003,0.13232421875,0.18603515625,1.1806640625,54.6,15.45,53.1
406.95121951219517,-151.52439024390245,-344.32926829268297,0.1328125,0.89697265625,1.0732421875,59.55,7.5,51.15
32.743902439024396,133.0487804878049,-184.08536585365854,-0.15283203125,0.90380859375,1.07421875,62.099999999999994,-2.25,48.6
-819.1463414634147,416.4024390243903,93.17073170731707,-0.75390625,-0.02685546875,0.5205078125,62.55,-23.55,33.75
155.0,338.5975609756098,161.76829268292684,-0.6669921875,-0.09130859375,-0.2958984375,55.5,-1.5,4.95
48.53658536585366,136.70731707317074,103.71951219512196,-0.9931640625,0.3212890625,-0.53955078125,43.199999999999996,1.05,-5.7
30.792682926829272,97.31707317073172,81.03658536585367,-0.84619140625,0.28271484375,-0.43896484375,35.1,-0.3,-8.25
-107.50000000000001,-77.13414634146342,-23.59756097560976,-1.02734375,0.55224609375,-0.66455078125,31.65,0.15,-10.35
-208.2926829268293,-299.20731707317077,-264.39024390243907,-0.3798828125,0.0625,-0.17822265625,47.4,9.45,-1.05
-513.719512195122,-437.9268292682927,-104.45121951219514,-0.806640625,0.1357421875,0.66650390625,61.05,3.0,11.549999999999999
-326.3414634146342,-283.9634146341464,-113.35365853658537,-0.17822265625,-0.80615234375,1.18701171875,64.2,-4.35,44.1
-85.00000000000001,-233.47560975609758,-22.682926829268293,-0.14404296875,-0.6591796875,0.6728515625,64.05,-10.95,49.35
220.7926829268293,-170.0609756097561,12.195121951219512,-0.21240234375,-0.25830078125,0.51708984375,57.9,2.4,54.9
-53.84146341463415,-5.3048780487804885,49.268292682926834,0.38916015625,0.4189453125,1.5546875,55.35,18.0,51.3
-0.3658536585365854,12.134146341463415,-1.8902439024390245,0.0283203125,0.16845703125,0.9912109375,53.55,15.899999999999999,53.4
0.1829268292682927,-0.7317073170731708,-2.5,0.0263671875,0.18994140625,1.021484375,54.3,15.6,53.4
-0.6097560975609757,0.6097560975609757,0.1829268292682927,0.044921875,0.16943359375,0.9990234375,54.15,14.7,52.05
-1.0975609756097562,1.3414634146341464,-4.2682926829268295,0.0341796875,0.1748046875,1.00634765625,54.15,16.2,52.35
-0.12195121951219513,0.48780487804878053,-0.6707317073170732,0.0361328125,0.17919921875,1.02197265625,54.3,15.6,51.9
0.30487804878048785,2.804878048780488,1.0975609756097562,0.0322265625,0.18505859375,1.02880859375,54.3,14.399999999999999,52.65
0.0,2.439024390243903,-1.402439024390244,0.04736328125,0.189453125,1.021484375,53.85,13.799999999999999,52.8
-5.0,-5.548780487804878,-11.341463414634147,0.08203125,0.21240234375,1.03515625,53.4,16.95,53.85
1.2804878048780488,3.7195121951219514,-1.0365853658536586,0.1796875,0.2236328125,1.11669921875,52.949999999999996,14.85,53.4
0.7926829268292683,-4.878048780487806,-0.5487804878048781,0.0810546875,0.17431640625,0.99365234375,52.65,16.2,55.35
11.585365853658537,61.524390243902445,78.96341463414635,-0.072265625,0.12646484375,1.05859375,52.199999999999996,17.099999999999998,54.75
-1.4634146341463417,-10.731707317073171,3.1097560975609757,0.1171875,0.130859375,1.060546875,52.949999999999996,18.599999999999998,53.699999999999996
1.1585365853658538,-7.500000000000001,5.060975609756098,0.07763671875,0.181640625,0.9912109375,52.199999999999996,19.05,54.449999999999996
1.2195121951219514,7.987804878048781,-0.853658536585366,0.08837890625,0.1796875,1.01025390625,52.199999999999996,17.55,53.4
2.9268292682926833,-10.426829268292684,-2.5609756097560976,0.06689453125,0.17333984375,1.005859375,52.5,17.849999999999998,53.699999999999996
-0.853658536585366,5.975609756097562,1.1585365853658538,0.072265625,0.17431640625,0.998046875,51.15,17.7,53.55
0.0,1.2195121951219514,0.1829268292682927,0.0693359375,0.17431640625,1.01318359375,51.9,18.45,53.1
-0.9146341463414634,2.6219512195121952,-3.4756097560975614,0.05224609375,0.1689453125,1.0068359375,50.699999999999996,17.099999999999998,52.949999999999996
0.7926829268292683,1.2195121951219514,-1.402439024390244,0.04541015625,0.18017578125,1.01953125,52.65,17.25,52.8
-1.0975609756097562,2.5609756097560976,-1.5853658536585367,0.0849609375,0.1728515625,1.01416015625,52.949999999999996,15.899999999999999,53.4
-0.1829268292682927,-0.12195121951219513,0.426829268292683,0.0810546875,0.171875,1.01513671875,52.949999999999996,15.6,53.4
-1.3414634146341464,0.3658536585365854,-1.2804878048780488,0.09716796875,0.16943359375,1.02001953125,52.949999999999996,15.149999999999999,53.699999999999996
-1.2195121951219514,1.1585365853658538,-0.853658536585366,0.09765625,0.15966796875,1.009765625,52.35,15.75,53.85
-0.6097560975609757,3.1707317073170733,0.06097560975609757,0.0771484375,0.17626953125,1.01806640625,53.25,15.6,53.4
1.524390243902439,1.1585365853658538,-1.707317073170732,0.087890625,0.17529296875,1.01806640625,53.25,15.149999999999999,53.699999999999996
0.3658536585365854,2.8658536585365857,-0.6707317073170732,0.08447265625,0.16748046875,1.0087890625,53.1,15.45,52.35
2.439024390243903,0.6097560975609757,-1.1585365853658538,0.072265625,0.17822265625,1.00244140625,52.35,15.45,55.35
-0.9146341463414634,1.6463414634146343,-1.1585365853658538,0.08154296875,0.1650390625,1.015625,53.25,15.149999999999999,52.949999999999996
1.2195121951219514,2.3170731707317076,1.8902439024390245,0.07763671875,0.1787109375,1.0126953125,53.55,16.8,54.0
1.4634146341463417,0.24390243902439027,-0.426829268292683,0.0791015625,0.1826171875,1.0126953125,53.1,16.5,54.3
0.6707317073170732,1.829268292682927,0.426829268292683,0.08447265625,0.1640625,1.0166015625,52.35,15.45,53.55
-0.30487804878048785,-0.9146341463414634,2.073170731707317,0.08154296875,0.171875,1.0224609375,53.4,14.7,53.85
2.0121951219512195,1.1585365853658538,0.1829268292682927,0.07666015625,0.17919921875,1.0205078125,53.1,15.75,54.6
-0.6707317073170732,3.048780487804878,0.6707317073170732,0.0849609375,0.16845703125,1.02197265625,52.5,15.899999999999999,52.65
0.24390243902439027,-1.3414634146341464,0.0,0.08056640625,0.16796875,1.00634765625,53.55,16.8,54.0
0.426829268292683,3.353658536585366,-1.0975609756097562,0.07958984375,0.166015625,1.01416015625,52.35,15.75,53.55
-0.5487804878048781,0.1829268292682927,-1.6463414634146343,0.06982421875,0.1552734375,1.00927734375,54.0,15.6,54.0
0.06097560975609757,1.707317073170732,0.6707317073170732,0.07275390625,0.17333984375,1.01123046875,53.85,15.0,54.9
-1.5853658536585367,1.707317073170732,0.30487804878048785,0.076171875,0.1796875,1.0185546875,52.949999999999996,14.85,53.699999999999996
-1.707317073170732,-0.3658536585365854,1.707317073170732,0.08349609375,0.1826171875,1.00390625,52.65,16.2,54.6
-1.402439024390244,0.7926829268292683,-0.426829268292683,0.076171875,0.17138671875,1.01806640625,53.1,15.75,54.3
-0.06097560975609757,0.0,0.48780487804878053,0.0830078125,0.1796875,1.017578125,53.4,15.45,54.6
1.8902439024390245,1.0365853658536586,0.426829268292683,0.07861328125,0.17333984375,1.0185546875,53.4,15.75,55.35
-0.426829268292683,-0.853658536585366,-0.7317073170731708,0.09326171875,0.1591796875,1.0146484375,54.15,15.0,54.3
0.30487804878048785,0.6707317073170732,-0.853658536585366,0.07421875,0.173828125,1.0205078125,51.9,16.2,54.6
-1.9512195121951221,0.1829268292682927,-0.6097560975609757,0.083984375,0.166015625,1.01416015625,51.75,15.149999999999999,53.699999999999996
-0.7317073170731708,3.231707317073171,-0.3658536585365854,0.08740234375,0.17822265625,1.0205078125,53.4,15.45,55.35
-0.24390243902439027,1.524390243902439,1.0365853658536586,0.07177734375,0.16455078125,1.00634765625,52.35,17.25,55.35
0.12195121951219513,0.6707317073170732,-1.829268292682927,0.08056640625,0.16015625,1.01953125,52.65,16.2,54.9
1.0975609756097562,0.426829268292683,-1.2195121951219514,0.07177734375,0.173828125,1.009765625,54.0,16.349999999999998,53.699999999999996
0.24390243902439027,0.5487804878048781,-1.2804878048780488,0.08154296875,0.18212890625,1.01513671875,52.35,15.45,54.9
1.4634146341463417,1.0365853658536586,0.853658536585366,0.0703125,0.16845703125,1.01171875,52.5,15.149999999999999,54.0
0.0,1.524390243902439,0.30487804878048785,0.07275390625,0.1748046875,1.01171875,53.1,16.2,54.9
1.524390243902439,3.5975609756097566,1.402439024390244,0.07958984375,0.17578125,1.01416015625,53.25,15.6,52.65
-0.9756097560975611,1.2195121951219514,-0.1829268292682927,0.080078125,0.16845703125,1.0126953125,53.1,14.7,54.3
-0.06097560975609757,0.9756097560975611,-3.414634146341464,0.08154296875,0.17041015625,1.01708984375,52.949999999999996,17.099999999999998,52.949999999999996
0.9146341463414634,2.987804878048781,-0.9146341463414634,0.0908203125,0.17236328125,1.0107421875,52.949999999999996,16.349999999999998,54.449999999999996
-1.2195121951219514,0.0,-1.402439024390244,0.06005859375,0.16455078125,1.03271484375,53.1,15.45,53.85
-2.9268292682926833,-0.1829268292682927,-3.353658536585366,0.0751953125,0.1669921875,1.009765625,54.3,15.6,53.4
0.30487804878048785,1.4634146341463417,1.6463414634146343,0.0869140625,0.171875,1.001953125,53.25,16.8,54.449999999999996
-1.0365853658536586,0.0,0.426829268292683,0.07275390625,0.173828125,1.005859375,52.949999999999996,14.85,52.949999999999996
-0.853658536585366,1.707317073170732,2.439024390243903,0.08056640625,0.17138671875,1.02587890625,52.199999999999996,15.899999999999999,53.4
-1.0365853658536586,1.1585365853658538,-1.0975609756097562,0.07763671875,0.17529296875,1.0283203125,55.5,16.349999999999998,54.75
-0.9756097560975611,0.6707317073170732,0.426829268292683,0.07373046875,0.17578125,1.01171875,51.9,16.2,53.55
-1.707317073170732,0.5487804878048781,1.707317073170732,0.091796875,0.16943359375,1.01904296875,53.25,15.899999999999999,55.199999999999996
-1.3414634146341464,0.1829268292682927,0.853658536585366,0.08544921875,0.1650390625,1.0263671875,53.25,15.149999999999999,54.449999999999996
0.6097560975609757,1.0975609756097562,0.853658536585366,0.08154296875,0.17236328125,1.01220703125,53.4,15.45,53.55
0.24390243902439027,-0.48780487804878053,0.7926829268292683,0.07275390625,0.171875,1.017578125,54.0,16.349999999999998,53.4
-0.7317073170731708,1.829268292682927,1.0365853658536586,0.07958984375,0.17236328125,1.0146484375,53.4,15.75,53.85
0.853658536585366,1.2804878048780488,0.5487804878048781,0.08740234375,0.18017578125,1.01123046875,51.6,15.75,53.55
-0.6707317073170732,-0.3658536585365854,2.073170731707317,0.07275390625,0.1708984375,1.01318359375,53.25,15.899999999999999,54.75
-1.1585365853658538,0.7926829268292683,-0.5487804878048781,0.0859375,0.17578125,1.00439453125,51.9,14.25,53.85
-1.524390243902439,1.2195121951219514,-0.7926829268292683,0.0751953125,0.17138671875,1.01220703125,53.1,15.45,53.85
0.853658536585366,1.2195121951219514,-1.524390243902439,0.07275390625,0.16748046875,1.00830078125,53.25,16.349999999999998,54.0
-0.5487804878048781,-0.12195121951219513,-0.24390243902439027,0.08447265625,0.18115234375,1.01123046875,52.65,16.2,54.6
-0.30487804878048785,0.7926829268292683,0.426829268292683,0.07666015625,0.16796875,1.005859375,53.25,14.399999999999999,54.75
-2.378048780487805,1.7682926829268295,1.524390243902439,0.087890625,0.17138671875,1.01708984375,52.949999999999996,16.349999999999998,54.0
1.2804878048780488,0.3658536585365854,-0.12195121951219513,0.0830078125,0.177734375,1.01513671875,52.65,15.45,54.3
-1.0365853658536586,2.5609756097560976,1.402439024390244,0.0888671875,0.1826171875,1.00927734375,53.1,15.0,53.1
-0.853658536585366,-1.3414634146341464,-0.06097560975609757,0.07763671875,0.16796875,1.00048828125,53.1,15.75,53.85
0.1829268292682927,2.1951219512195124,-1.7682926829268295,0.080078125,0.17724609375,1.013671875,54.15,15.45,53.1
-0.5487804878048781,2.1951219512195124,-0.48780487804878053,0.078125,0.1767578125,1.0107421875,54.0,16.349999999999998,54.449999999999996
0.30487804878048785,2.9268292682926833,-0.48780487804878053,0.1025390625,0.1611328125,1.0166015625,53.1,16.95,54.3
1.0365853658536586,0.48780487804878053,1.0975609756097562,0.09423828125,0.169921875,1.01708984375,52.35,15.75,53.1
0.426829268292683,2.1951219512195124,-1.5853658536585367,0.08984375,0.16845703125,1.01025390625,53.55,15.149999999999999,54.75
1.707317073170732,1.524390243902439,-1.7682926829268295,0.08837890625,0.162109375,1.015625,52.949999999999996,15.149999999999999,53.4
0.9756097560975611,1.8902439024390245,0.426829268292683,0.0771484375,0.16552734375,1.01806640625,53.25,15.6,53.699999999999996
1.707317073170732,1.524390243902439,2.1951219512195124,0.07666015625,0.16552734375,1.01025390625,52.35,15.0,53.1
-1.402439024390244,1.9512195121951221,2.7439024390243905,0.0703125,0.16748046875,1.01416015625,53.55,15.6,52.949999999999996
-1.2195121951219514,0.30487804878048785,0.30487804878048785,0.0693359375,0.173828125,1.009765625,53.25,14.399999999999999,54.449999999999996
-1.0975609756097562,1.3414634146341464,-1.707317073170732,0.0869140625,0.17041015625,1.01806640625,54.0,16.349999999999998,54.449999999999996
-0.5487804878048781,1.829268292682927,0.5487804878048781,0.09130859375,0.17431640625,1.0126953125,53.4,15.0,53.55
0.0,-0.12195121951219513,-0.06097560975609757,0.080078125,0.1640625,1.00390625,55.05,15.6,54.0
1.707317073170732,1.5853658536585367,-1.1585365853658538,0.078125,0.1708984375,1.0224609375,53.4,15.75,53.85
2.682926829268293,0.426829268292683,-1.829268292682927,0.0771484375,0.171875,1.01416015625,52.65,15.45,53.1
1.402439024390244,2.378048780487805,0.853658536585366,0.091796875,0.16259765625,1.02001953125,52.5,15.149999999999999,53.4
1.707317073170732,0.30487804878048785,1.9512195121951221,0.08984375,0.1806640625,0.9970703125,53.4,15.45,54.6
1.0365853658536586,0.9756097560975611,0.7926829268292683,0.08642578125,0.17529296875,1.02197265625,53.85,15.75,53.85
0.0,3.780487804878049,-0.6707317073170732,0.0869140625,0.1748046875,1.01513671875,52.5,15.149999999999999,54.0
-0.7926829268292683,1.402439024390244,-0.24390243902439027,0.0849609375,0.16943359375,1.00927734375,53.85,15.45,55.65
0.30487804878048785,0.0,1.402439024390244,0.07958984375,0.169921875,1.025390625,52.35,14.25,52.8
-1.707317073170732,1.0365853658536586,1.0975609756097562,0.087890625,0.1796875,1.01513671875,52.949999999999996,16.349999999999998,52.65
2.0121951219512195,0.24390243902439027,0.06097560975609757,0.080078125,0.17529296875,1.01220703125,53.55,14.85,53.4
0.0,0.6097560975609757,1.6463414634146343,0.08740234375,0.177734375,1.01318359375,52.65,16.5,54.6
-2.804878048780488,1.402439024390244,0.426829268292683,0.07861328125,0.169921875,1.0068359375,53.25,14.399999999999999,54.449999999999996
1.0365853658536586,0.06097560975609757,0.7317073170731708,0.072265625,0.18408203125,1.0087890625,53.55,16.349999999999998,54.0
-0.12195121951219513,1.2195121951219514,2.1341463414634148,0.06787109375,0.16845703125,1.01123046875,52.199999999999996,15.149999999999999,54.0
1.5853658536585367,0.6707317073170732,-0.9146341463414634,0.0771484375,0.173828125,1.02099609375,53.25,14.85,54.449999999999996
-0.9146341463414634,3.4756097560975614,-0.3658536585365854,0.08544921875,0.16748046875,1.0224609375,52.35,15.75,54.3
-1.8902439024390245,-1.524390243902439,0.1829268292682927,0.09423828125,0.1787109375,1.015625,52.199999999999996,14.85,53.4
0.853658536585366,2.073170731707317,1.2195121951219514,0.08642578125,0.166015625,1.00537109375,53.85,15.45,55.35
-1.1585365853658538,0.9146341463414634,0.12195121951219513,0.076171875,0.16455078125,1.0107421875,53.55,15.149999999999999,54.0
-0.24390243902439027,-0.1829268292682927,-0.12195121951219513,0.08544921875,0.169921875,1.0224609375,54.0,14.85,54.75
-0.6707317073170732,-0.3658536585365854,-0.12195121951219513,0.0927734375,0.15771484375,1.02197265625,52.35,13.049999999999999,53.85
0.1829268292682927,2.5,-1.524390243902439,0.0791015625,0.16357421875,1.013671875,54.0,15.899999999999999,54.449999999999996
-0.24390243902439027,-1.2804878048780488,0.0,0.07080078125,0.16748046875,1.0146484375,52.949999999999996,15.6,54.449999999999996
-1.6463414634146343,2.0121951219512195,-0.3658536585365854,0.07958984375,0.16943359375,1.0048828125,54.3,15.899999999999999,54.75
0.1829268292682927,1.9512195121951221,0.853658536585366,0.0908203125,0.16748046875,1.0029296875,53.4,15.0,53.55
0.426829268292683,-0.7317073170731708,0.426829268292683,0.07763671875,0.17529296875,1.00830078125,53.25,14.1,55.199999999999996
1.402439024390244,1.0365853658536586,-0.7317073170731708,0.09521484375,0.1796875,1.02685546875,54.15,16.5,54.6
-0.1829268292682927,0.7317073170731708,-1.3414634146341464,0.07763671875,0.17236328125,1.0146484375,53.1,14.7,53.1
0.6707317073170732,-0.3658536585365854,0.6097560975609757,0.08544921875,0.1708984375,1.001953125,53.85,16.5,54.6
1.7682926829268295,-0.1829268292682927,-1.2195121951219514,0.0712890625,0.17041015625,1.01611328125,54.0,16.349999999999998,53.699999999999996
-1.524390243902439,2.6219512195121952,-1.6463414634146343,0.0859375,0.17529296875,1.01611328125,54.0,15.6,52.949999999999996
-0.426829268292683,2.7439024390243905,-0.7926829268292683,0.0888671875,0.171875,1.01904296875,53.55,15.6,54.449999999999996
0.6097560975609757,-0.1829268292682927,0.3658536585365854,0.08251953125,0.16357421875,1.0126953125,53.1,15.45,53.55
0.0,0.48780487804878053,-1.7682926829268295,0.10205078125,0.16552734375,1.0107421875,54.3,15.6,53.699999999999996
0.6707317073170732,-0.3658536585365854,-0.5487804878048781,0.07861328125,0.17431640625,1.017578125,53.85,16.2,53.85
-1.3414634146341464,1.8902439024390245,-0.9146341463414634,0.07666015625,0.17529296875,1.0205078125,53.85,16.2,53.1
-0.9146341463414634,1.829268292682927,-0.426829268292683,0.08154296875,0.1640625,1.02001953125,52.949999999999996,15.149999999999999,52.65
1.4634146341463417,1.707317073170732,-0.6707317073170732,0.07421875,0.17041015625,1.025390625,53.55,16.349999999999998,53.4
-1.0975609756097562,0.3658536585365854,-1.707317073170732,0.087890625,0.17138671875,1.015625,53.4,17.25,53.85
1.524390243902439,-0.6097560975609757,0.6097560975609757,0.08349609375,0.17626953125,1.0205078125,55.35,15.0,55.35
1.707317073170732,3.231707317073171,0.30487804878048785,0.08935546875,0.17041015625,1.00732421875,51.9,15.45,55.35
