gx,gy,gz,ax,ay,az,mx,my,mz
-0.6097560975609757,0.1829268292682927,2.378048780487805,0.4453125,0.42138671875,0.80224609375,15.299999999999999,29.849999999999998,49.949999999999996
-0.7317073170731708,1.6463414634146343,-2.439024390243903,0.46044921875,0.4482421875,0.796875,16.2,29.4,51.449999999999996
-0.9146341463414634,2.3170731707317076,-1.6463414634146343,0.45654296875,0.44384765625,0.80517578125,15.149999999999999,30.45,48.6
1.0365853658536586,1.6463414634146343,0.24390243902439027,0.4541015625,0.4345703125,0.791015625,17.849999999999998,28.05,49.5
1.2804878048780488,-0.1829268292682927,1.6463414634146343,0.45703125,0.435546875,0.7958984375,16.2,28.65,50.1
-2.0121951219512195,1.707317073170732,-0.6707317073170732,0.44873046875,0.44580078125,0.78564453125,16.65,29.4,49.35
0.7317073170731708,1.0365853658536586,0.30487804878048785,0.4677734375,0.44775390625,0.79443359375,17.099999999999998,29.549999999999997,48.449999999999996
0.12195121951219513,2.25609756097561,0.6097560975609757,0.46728515625,0.4404296875,0.79345703125,17.4,28.65,49.35
0.9756097560975611,1.8902439024390245,-0.12195121951219513,0.462890625,0.4482421875,0.80078125,17.099999999999998,29.849999999999998,50.25
-2.439024390243903,1.8902439024390245,-1.4634146341463417,0.4619140625,0.44091796875,0.79931640625,15.899999999999999,28.65,48.9
2.1341463414634148,1.2804878048780488,-0.48780487804878053,0.44921875,0.44921875,0.79052734375,16.05,28.349999999999998,48.75
1.0975609756097562,1.2804878048780488,0.7317073170731708,0.46435546875,0.44189453125,0.80859375,16.65,30.15,50.4
-0.6097560975609757,1.9512195121951221,1.524390243902439,0.46337890625,0.44873046875,0.79833984375,16.349999999999998,28.05,49.199999999999996
1.2195121951219514,1.2804878048780488,0.12195121951219513,0.4482421875,0.4375,0.81201171875,16.05,28.349999999999998,50.25
-2.5609756097560976,-1.0365853658536586,0.9146341463414634,0.4521484375,0.4443359375,0.79931640625,16.65,28.95,48.6
1.3414634146341464,1.9512195121951221,0.426829268292683,0.453125,0.45068359375,0.78857421875,16.8,29.549999999999997,49.949999999999996
2.1951219512195124,1.829268292682927,-1.2195121951219514,0.4580078125,0.45166015625,0.7880859375,16.95,28.65,49.65
3.1707317073170733,-0.7926829268292683,-1.6463414634146343,0.447265625,0.44140625,0.796875,16.65,30.15,49.35
0.48780487804878053,1.2195121951219514,0.24390243902439027,0.46337890625,0.447265625,0.798828125,16.349999999999998,30.299999999999997,49.5
0.48780487804878053,2.3170731707317076,-0.1829268292682927,0.4580078125,0.43115234375,0.80029296875,16.8,28.799999999999997,49.5
-1.829268292682927,-0.24390243902439027,0.5487804878048781,0.45458984375,0.43359375,0.798828125,15.149999999999999,28.95,50.1
-1.402439024390244,0.7317073170731708,-0.6097560975609757,0.451171875,0.4345703125,0.79541015625,15.899999999999999,27.75,49.35
2.073170731707317,0.12195121951219513,-0.6097560975609757,0.4521484375,0.4365234375,0.79541015625,16.349999999999998,29.549999999999997,49.949999999999996
-1.6463414634146343,1.0975609756097562,0.7926829268292683,0.45654296875,0.4375,0.8046875,15.299999999999999,29.549999999999997,49.5
3.658536585365854,0.3658536585365854,-1.0975609756097562,0.45263671875,0.44140625,0.80029296875,15.899999999999999,28.95,49.35
-1.524390243902439,1.1585365853658538,-0.06097560975609757,0.47265625,0.439453125,0.8017578125,16.349999999999998,28.799999999999997,50.25
1.8902439024390245,-0.30487804878048785,-2.073170731707317,0.45361328125,0.4453125,0.80029296875,17.4,27.75,49.35
-2.1951219512195124,-0.9756097560975611,-0.9146341463414634,0.4541015625,0.44970703125,0.8076171875,18.0,29.7,50.4
0.9146341463414634,-0.6097560975609757,-0.3658536585365854,0.45849609375,0.44580078125,0.79443359375,16.349999999999998,29.549999999999997,50.25
-1.0365853658536586,1.8902439024390245,-0.853658536585366,0.466796875,0.43896484375,0.78662109375,16.65,28.2,49.35
1.402439024390244,2.3170731707317076,0.9146341463414634,0.46728515625,0.4609375,0.787109375,17.4,29.4,48.6
0.853658536585366,2.3170731707317076,-0.5487804878048781,0.44970703125,0.4326171875,0.7890625,16.65,28.65,50.85
-3.8414634146341466,2.1951219512195124,-0.30487804878048785,0.46630859375,0.44189453125,0.7861328125,16.95,29.4,48.9
1.402439024390244,0.9756097560975611,-2.0121951219512195,0.4638671875,0.4423828125,0.79931640625,16.8,29.849999999999998,46.949999999999996
-1.9512195121951221,0.3658536585365854,0.6097560975609757,0.45361328125,0.44384765625,0.80078125,16.2,27.75,48.9
1.402439024390244,2.439024390243903,0.12195121951219513,0.46240234375,0.43798828125,0.79345703125,16.65,29.7,50.1
2.0121951219512195,0.6097560975609757,-0.6707317073170732,0.4482421875,0.44384765625,0.7939453125,18.0,29.7,48.9
0.9756097560975611,1.829268292682927,0.48780487804878053,0.46875,0.4541015625,0.79931640625,16.95,28.2,49.35
2.439024390243903,0.24390243902439027,0.5487804878048781,0.45703125,0.43701171875,0.7880859375,16.65,28.95,48.9
1.2804878048780488,0.12195121951219513,0.24390243902439027,0.46044921875,0.44384765625,0.80078125,15.299999999999999,28.799999999999997,50.25
1.402439024390244,-0.5487804878048781,-0.06097560975609757,0.4658203125,0.43212890625,0.798828125,16.95,28.95,50.4
-2.25609756097561,-1.1585365853658538,-0.7926829268292683,0.4638671875,0.44482421875,0.78515625,16.95,28.2,48.9
2.5,2.0121951219512195,0.3658536585365854,0.4404296875,0.4296875,0.7939453125,16.95,29.4,49.65
-1.0975609756097562,0.7926829268292683,-1.6463414634146343,0.46337890625,0.447265625,0.802734375,16.349999999999998,31.049999999999997,49.949999999999996
0.7926829268292683,0.5487804878048781,0.24390243902439027,0.4580078125,0.447265625,0.79638671875,16.65,28.95,50.1
-0.7926829268292683,0.24390243902439027,1.6463414634146343,0.46630859375,0.4345703125,0.80615234375,15.6,29.099999999999998,48.75
-0.1829268292682927,2.073170731707317,-0.9146341463414634,0.4638671875,0.44677734375,0.806640625,16.8,29.099999999999998,51.3
0.1829268292682927,1.402439024390244,-3.048780487804878,0.45751953125,0.42919921875,0.7958984375,17.4,28.2,50.1
-1.0975609756097562,2.0121951219512195,-2.804878048780488,0.46142578125,0.46240234375,0.794921875,15.45,28.65,50.4
1.7682926829268295,-0.48780487804878053,3.1707317073170733,0.455078125,0.43701171875,0.8017578125,16.349999999999998,28.799999999999997,49.199999999999996
-0.1829268292682927,0.24390243902439027,1.0975609756097562,0.4580078125,0.45166015625,0.8056640625,16.349999999999998,28.05,49.5
-1.2804878048780488,1.1585365853658538,1.5853658536585367,0.4599609375,0.43798828125,0.798828125,16.05,28.799999999999997,50.55
1.524390243902439,0.853658536585366,-0.3658536585365854,0.46484375,0.4326171875,0.7900390625,17.7,29.7,49.65
0.6097560975609757,1.3414634146341464,1.1585365853658538,0.46240234375,0.44189453125,0.806640625,16.8,29.849999999999998,50.25
-2.5,2.9268292682926833,-0.9146341463414634,0.4560546875,0.431640625,0.7998046875,16.65,28.2,50.1
-0.9756097560975611,1.2804878048780488,-0.7317073170731708,0.46630859375,0.43505859375,0.79248046875,16.05,29.549999999999997,49.949999999999996
0.6097560975609757,2.0121951219512195,2.1951219512195124,0.44921875,0.44482421875,0.8056640625,18.3,29.099999999999998,50.55
-2.5609756097560976,4.024390243902439,-1.2195121951219514,0.4462890625,0.44921875,0.78759765625,16.95,30.45,47.85
-0.06097560975609757,1.829268292682927,-0.7317073170731708,0.45556640625,0.43994140625,0.7998046875,14.549999999999999,28.349999999999998,49.5
-2.378048780487805,-0.7317073170731708,1.3414634146341464,0.45263671875,0.44873046875,0.7958984375,18.3,29.099999999999998,50.25
-1.6463414634146343,1.0365853658536586,0.5487804878048781,0.4609375,0.43701171875,0.8037109375,16.95,29.7,50.4
-0.30487804878048785,0.6097560975609757,0.3658536585365854,0.45361328125,0.43994140625,0.7900390625,16.8,29.849999999999998,50.55
-0.1829268292682927,3.963414634146342,1.3414634146341464,0.45166015625,0.4619140625,0.80029296875,16.65,28.65,49.35
0.30487804878048785,-0.06097560975609757,-0.853658536585366,0.4677734375,0.453125,0.80712890625,17.4,28.2,49.65
1.3414634146341464,0.7317073170731708,0.1829268292682927,0.4443359375,0.4423828125,0.7880859375,16.65,28.65,49.65
-1.1585365853658538,2.1341463414634148,0.48780487804878053,0.44921875,0.44091796875,0.8056640625,17.099999999999998,28.349999999999998,49.5
-0.853658536585366,2.1951219512195124,1.1585365853658538,0.447265625,0.4521484375,0.79248046875,16.8,30.299999999999997,49.949999999999996
0.24390243902439027,1.402439024390244,-1.0975609756097562,0.46044921875,0.43798828125,0.8017578125,15.299999999999999,29.849999999999998,48.75
-1.2804878048780488,2.7439024390243905,-0.853658536585366,0.45849609375,0.4365234375,0.80224609375,15.6,28.799999999999997,49.5
0.7926829268292683,-0.7926829268292683,0.426829268292683,0.4638671875,0.44384765625,0.79296875,15.6,29.099999999999998,49.199999999999996
2.7439024390243905,2.9268292682926833,1.1585365853658538,0.45947265625,0.44775390625,0.8037109375,17.099999999999998,29.849999999999998,51.0
-2.3170731707317076,1.7682926829268295,-0.1829268292682927,0.451171875,0.4423828125,0.79345703125,17.099999999999998,29.849999999999998,49.949999999999996
2.6219512195121952,0.853658536585366,-0.30487804878048785,0.45068359375,0.453125,0.796875,16.05,29.099999999999998,49.5
0.1829268292682927,0.6097560975609757,0.9756097560975611,0.44873046875,0.44140625,0.8056640625,16.2,28.95,50.1
-0.5487804878048781,0.0,-0.6097560975609757,0.466796875,0.4443359375,0.7998046875,15.45,28.95,50.1
-1.1585365853658538,2.682926829268293,1.6463414634146343,0.4609375,0.4443359375,0.79443359375,17.4,28.95,49.35
0.12195121951219513,0.06097560975609757,1.0975609756097562,0.45751953125,0.44091796875,0.796875,16.05,28.05,49.199999999999996
-0.853658536585366,-0.7926829268292683,-1.402439024390244,0.458984375,0.4404296875,0.80322265625,16.8,29.099999999999998,49.5
0.48780487804878053,3.4756097560975614,-1.707317073170732,0.45654296875,0.4501953125,0.79931640625,16.349999999999998,29.099999999999998,49.5
-0.24390243902439027,0.6707317073170732,-2.5609756097560976,0.455078125,0.4375,0.79541015625,16.8,28.349999999999998,50.55
-1.4634146341463417,2.8658536585365857,-1.0365853658536586,0.45458984375,0.4384765625,0.80224609375,15.45,28.65,50.1
0.48780487804878053,3.048780487804878,-3.1097560975609757,0.46826171875,0.42919921875,0.80322265625,15.6,28.349999999999998,49.5
-0.9756097560975611,3.048780487804878,1.5853658536585367,0.45751953125,0.4375,0.7861328125,16.8,29.549999999999997,49.949999999999996
4.878048780487806,1.9512195121951221,-0.9146341463414634,0.4658203125,0.44677734375,0.79736328125,16.95,28.65,48.9
1.402439024390244,-0.7317073170731708,-1.524390243902439,0.4560546875,0.43798828125,0.79833984375,16.65,28.95,49.65
2.5609756097560976,-0.06097560975609757,-1.5853658536585367,0.4619140625,0.45654296875,0.79833984375,17.4,29.7,50.85
1.7682926829268295,1.6463414634146343,-0.24390243902439027,0.45654296875,0.44287109375,0.783203125,17.55,28.349999999999998,48.75
-0.7926829268292683,-0.6097560975609757,-1.0365853658536586,0.45166015625,0.443359375,0.80029296875,16.349999999999998,28.349999999999998,49.949999999999996
-0.426829268292683,-0.3658536585365854,-0.6097560975609757,0.4677734375,0.44873046875,0.791015625,16.05,29.549999999999997,48.75
-2.073170731707317,1.524390243902439,-1.5853658536585367,0.45556640625,0.44140625,0.7998046875,16.95,28.95,48.9
0.12195121951219513,2.7439024390243905,-1.0365853658536586,0.4443359375,0.44091796875,0.7998046875,16.8,29.849999999999998,50.25
-2.6219512195121952,2.073170731707317,-0.5487804878048781,0.46728515625,0.4443359375,0.80322265625,16.349999999999998,28.05,49.5
1.2195121951219514,0.0,1.2804878048780488,0.4609375,0.44775390625,0.798828125,17.099999999999998,28.349999999999998,51.0
0.48780487804878053,0.9756097560975611,0.30487804878048785,0.46142578125,0.43896484375,0.79736328125,16.05,28.05,50.25
0.5487804878048781,-1.0365853658536586,-0.9756097560975611,0.47412109375,0.4384765625,0.794921875,17.099999999999998,29.549999999999997,49.5
3.048780487804878,1.402439024390244,0.06097560975609757,0.46142578125,0.45849609375,0.806640625,16.8,28.349999999999998,50.55
-0.6097560975609757,2.682926829268293,-1.0365853658536586,0.46337890625,0.443359375,0.79248046875,15.299999999999999,28.799999999999997,49.5
1.402439024390244,-0.6707317073170732,0.853658536585366,0.453125,0.443359375,0.8046875,16.8,29.099999999999998,49.199999999999996
0.426829268292683,-1.524390243902439,1.6463414634146343,0.47119140625,0.443359375,0.794921875,14.7,28.95,50.1
1.829268292682927,0.12195121951219513,-0.7317073170731708,0.45654296875,0.44482421875,0.80029296875,16.349999999999998,29.549999999999997,49.199999999999996
-2.987804878048781,2.5,0.24390243902439027,0.4716796875,0.4375,0.78857421875,16.2,29.7,48.9
0.7317073170731708,1.0975609756097562,-0.1829268292682927,0.45751953125,0.44580078125,0.80078125,17.849999999999998,28.349999999999998,48.449999999999996
-0.6097560975609757,0.7317073170731708,2.5609756097560976,0.46533203125,0.4306640625,0.78759765625,16.8,28.349999999999998,49.199999999999996
-0.7317073170731708,-0.1829268292682927,0.426829268292683,0.4462890625,0.43896484375,0.810546875,17.4,28.2,48.9
2.1341463414634148,1.0975609756097562,-0.1829268292682927,0.4453125,0.45654296875,0.79541015625,16.2,27.75,49.65
-1.402439024390244,0.1829268292682927,-0.5487804878048781,0.46435546875,0.4345703125,0.7998046875,17.099999999999998,27.3,51.3
1.5853658536585367,1.4634146341463417,-2.3170731707317076,0.462890625,0.44189453125,0.79345703125,16.65,28.2,48.9
0.853658536585366,1.402439024390244,-2.1951219512195124,0.462890625,0.43359375,0.79833984375,16.349999999999998,29.099999999999998,50.25
1.6463414634146343,2.1951219512195124,-1.2804878048780488,0.45361328125,0.451171875,0.79248046875,16.05,28.349999999999998,48.449999999999996
-0.6097560975609757,1.3414634146341464,1.8902439024390245,0.44287109375,0.4375,0.79443359375,16.05,28.349999999999998,49.949999999999996
1.2804878048780488,-1.0365853658536586,1.5853658536585367,0.45703125,0.44580078125,0.79931640625,16.8,29.099999999999998,48.75
-0.48780487804878053,1.524390243902439,-1.6463414634146343,0.45166015625,0.44921875,0.78955078125,16.65,29.4,48.9
-1.7682926829268295,0.30487804878048785,0.1829268292682927,0.45751953125,0.44140625,0.79150390625,16.349999999999998,29.099999999999998,48.449999999999996
-1.0365853658536586,1.0975609756097562,-1.707317073170732,0.447265625,0.44384765625,0.810546875,15.6,28.799999999999997,51.0
-0.6707317073170732,-2.1341463414634148,-0.12195121951219513,0.451171875,0.439453125,0.8037109375,18.3,27.599999999999998,49.199999999999996
1.0975609756097562,2.073170731707317,-0.7317073170731708,0.4599609375,0.44580078125,0.80810546875,16.8,28.799999999999997,48.449999999999996
1.0975609756097562,1.7682926829268295,0.9756097560975611,0.4423828125,0.4345703125,0.8056640625,16.05,28.349999999999998,49.949999999999996
2.682926829268293,1.4634146341463417,-0.06097560975609757,0.4541015625,0.45703125,0.802734375,16.05,29.549999999999997,48.75
2.25609756097561,1.2804878048780488,1.8902439024390245,0.44873046875,0.4345703125,0.81005859375,16.05,29.549999999999997,49.949999999999996
-0.7926829268292683,0.5487804878048781,-2.5609756097560976,0.46142578125,0.4423828125,0.78662109375,16.2,28.95,51.9
2.073170731707317,1.0975609756097562,-1.2195121951219514,0.47509765625,0.451171875,0.79443359375,16.2,28.2,51.15
-1.707317073170732,0.426829268292683,2.9268292682926833,0.4580078125,0.4306640625,0.79931640625,16.05,27.3,48.75
0.06097560975609757,-0.3658536585365854,2.1341463414634148,0.453125,0.443359375,0.7919921875,16.05,29.099999999999998,49.199999999999996
-2.1341463414634148,0.6707317073170732,0.24390243902439027,0.46240234375,0.43212890625,0.791015625,16.349999999999998,28.799999999999997,50.55
0.06097560975609757,0.12195121951219513,1.402439024390244,0.4541015625,0.43701171875,0.79833984375,15.45,28.95,50.1
0.30487804878048785,0.48780487804878053,-0.853658536585366,0.4462890625,0.44287109375,0.80517578125,16.8,29.099999999999998,50.25
-0.3658536585365854,0.6707317073170732,-1.9512195121951221,0.451171875,0.44775390625,0.78955078125,16.05,29.099999999999998,49.199999999999996
2.682926829268293,-0.9756097560975611,1.6463414634146343,0.45703125,0.43798828125,0.79833984375,18.45,28.95,49.65
0.06097560975609757,1.5853658536585367,-0.6097560975609757,0.453125,0.44189453125,0.78515625,16.8,29.549999999999997,49.5
3.048780487804878,1.707317073170732,-2.439024390243903,0.4609375,0.43896484375,0.7890625,17.099999999999998,28.799999999999997,49.199999999999996
-2.682926829268293,1.1585365853658538,1.2804878048780488,0.44580078125,0.44482421875,0.79345703125,16.8,29.099999999999998,50.55
-1.829268292682927,2.3170731707317076,-0.12195121951219513,0.4541015625,0.43701171875,0.796875,17.099999999999998,29.849999999999998,49.5
-0.7926829268292683,1.3414634146341464,1.707317073170732,0.4609375,0.44580078125,0.80126953125,16.05,29.099999999999998,49.5
-2.6219512195121952,3.1097560975609757,-1.6463414634146343,0.4501953125,0.45068359375,0.7939453125,16.05,29.099999999999998,49.5
0.24390243902439027,0.7926829268292683,1.0975609756097562,0.44970703125,0.443359375,0.79443359375,16.65,28.65,49.65
-0.3658536585365854,3.048780487804878,0.24390243902439027,0.4560546875,0.4404296875,0.80810546875,16.349999999999998,30.75,49.5
1.5853658536585367,-1.1585365853658538,0.6097560975609757,0.47216796875,0.44189453125,0.79248046875,16.95,29.7,49.65
-1.8902439024390245,0.6707317073170732,-0.24390243902439027,0.451171875,0.4306640625,0.79541015625,15.899999999999999,28.95,49.35
1.829268292682927,1.829268292682927,-1.8902439024390245,0.4580078125,0.43310546875,0.802734375,17.099999999999998,28.799999999999997,49.5
0.9756097560975611,0.5487804878048781,-0.3658536585365854,0.44775390625,0.44873046875,0.78173828125,16.349999999999998,29.099999999999998,49.199999999999996
-0.6097560975609757,0.0,0.853658536585366,0.47607421875,0.4462890625,0.7958984375,15.899999999999999,29.7,49.35
1.0975609756097562,-0.426829268292683,-1.8902439024390245,0.46044921875,0.44775390625,0.79296875,16.8,28.349999999999998,49.199999999999996
-2.7439024390243905,1.8902439024390245,-0.5487804878048781,0.4580078125,0.443359375,0.78955078125,17.4,28.65,50.4
-0.1829268292682927,2.1341463414634148,0.7926829268292683,0.4541015625,0.44091796875,0.8017578125,16.65,30.9,50.85
-2.682926829268293,0.853658536585366,-0.9756097560975611,0.4443359375,0.44970703125,0.80517578125,15.6,28.799999999999997,49.199999999999996
0.0,-0.5487804878048781,0.7317073170731708,0.4638671875,0.43896484375,0.7919921875,16.95,28.2,50.4
1.707317073170732,-0.24390243902439027,2.0121951219512195,0.4482421875,0.44140625,0.8046875,18.45,28.2,49.35
1.2804878048780488,1.0365853658536586,-1.524390243902439,0.46044921875,0.443359375,0.7890625,16.2,29.7,50.4
1.2804878048780488,-0.30487804878048785,-0.7926829268292683,0.47021484375,0.47119140625,0.7958984375,16.95,28.95,50.4
0.9146341463414634,-0.3658536585365854,-1.3414634146341464,0.4501953125,0.45068359375,0.79345703125,14.7,28.95,49.35
-1.9512195121951221,2.5,-2.25609756097561,0.4736328125,0.43994140625,0.80615234375,16.349999999999998,29.549999999999997,48.75
-1.402439024390244,3.963414634146342,1.9512195121951221,0.455078125,0.44189453125,0.8037109375,16.05,29.849999999999998,49.949999999999996
1.6463414634146343,1.524390243902439,0.853658536585366,0.45263671875,0.44091796875,0.79150390625,16.05,29.549999999999997,48.75
-3.780487804878049,1.829268292682927,-0.7926829268292683,0.458984375,0.439453125,0.79833984375,17.849999999999998,30.75,48.449999999999996
-0.30487804878048785,-0.06097560975609757,-1.6463414634146343,0.45556640625,0.44140625,0.8037109375,16.65,30.45,49.35
0.853658536585366,-1.6463414634146343,-0.1829268292682927,0.46044921875,0.43505859375,0.7998046875,16.95,29.4,49.65
3.2926829268292686,1.5853658536585367,2.378048780487805,0.45458984375,0.44140625,0.78759765625,16.05,29.549999999999997,49.949999999999996
0.6707317073170732,-0.12195121951219513,-1.829268292682927,0.4580078125,0.44287109375,0.8037109375,16.8,31.049999999999997,49.949999999999996
1.524390243902439,2.439024390243903,-1.2195121951219514,0.44677734375,0.439453125,0.791015625,17.7,28.65,50.1
1.6463414634146343,2.1951219512195124,-0.06097560975609757,0.455078125,0.44921875,0.79541015625,16.05,28.799999999999997,50.55
-0.30487804878048785,-0.24390243902439027,-1.3414634146341464,0.45703125,0.44580078125,0.7919921875,16.65,29.4,49.35
1.1585365853658538,1.8902439024390245,-0.853658536585366,0.45947265625,0.45458984375,0.7978515625,16.05,28.799999999999997,50.55
-3.1707317073170733,2.25609756097561,1.4634146341463417,0.447265625,0.44580078125,0.8017578125,15.6,28.799999999999997,50.55
1.7682926829268295,2.3170731707317076,-0.6097560975609757,0.4697265625,0.44775390625,0.794921875,16.349999999999998,28.799999999999997,48.449999999999996
0.5487804878048781,0.24390243902439027,-2.073170731707317,0.45556640625,0.43896484375,0.80908203125,16.8,29.849999999999998,49.5
-0.48780487804878053,2.25609756097561,-3.353658536585366,0.4638671875,0.44287109375,0.78662109375,18.0,28.2,49.65
1.5853658536585367,0.48780487804878053,-0.30487804878048785,0.46142578125,0.44921875,0.80078125,15.899999999999999,29.7,50.4
-1.524390243902439,1.402439024390244,1.8902439024390245,0.462890625,0.44775390625,0.7919921875,16.05,28.349999999999998,50.25
2.5609756097560976,-0.6097560975609757,-1.0365853658536586,0.466796875,0.44091796875,0.79931640625,17.55,28.799999999999997,49.199999999999996
2.1341463414634148,2.073170731707317,-0.12195121951219513,0.44677734375,0.4423828125,0.7919921875,16.05,28.349999999999998,50.25
-0.9146341463414634,3.1707317073170733,-3.231707317073171,0.46435546875,0.4560546875,0.79833984375,16.349999999999998,29.849999999999998,48.449999999999996
-2.0121951219512195,4.146341463414634,-1.0975609756097562,0.4658203125,0.43896484375,0.7880859375,16.95,28.95,48.9
0.24390243902439027,-0.3658536585365854,0.9146341463414634,0.4599609375,0.44677734375,0.79248046875,15.299999999999999,28.349999999999998,49.199999999999996
-1.1585365853658538,1.5853658536585367,-2.0121951219512195,0.474609375,0.4443359375,0.80224609375,17.099999999999998,28.05,49.199999999999996
0.48780487804878053,-0.3658536585365854,-0.24390243902439027,0.458984375,0.43408203125,0.80322265625,16.8,28.349999999999998,50.55
0.0,1.8902439024390245,0.9146341463414634,0.458984375,0.43896484375,0.79345703125,17.099999999999998,29.099999999999998,50.25
-1.2195121951219514,1.3414634146341464,-0.1829268292682927,0.4609375,0.43212890625,0.80322265625,16.2,28.95,49.65
1.7682926829268295,1.0975609756097562,-0.48780487804878053,0.458984375,0.4501953125,0.7939453125,17.099999999999998,29.099999999999998,50.55
-0.853658536585366,0.3658536585365854,-1.2195121951219514,0.4599609375,0.43212890625,0.79052734375,17.099999999999998,28.349999999999998,49.949999999999996
-1.1585365853658538,0.3658536585365854,0.5487804878048781,0.45654296875,0.4462890625,0.79345703125,17.4,29.7,49.65
-0.30487804878048785,-0.3658536585365854,-0.5487804878048781,0.45556640625,0.43896484375,0.798828125,16.8,30.299999999999997,49.949999999999996
-0.6707317073170732,0.3658536585365854,0.6097560975609757,0.4501953125,0.44384765625,0.7978515625,16.05,29.099999999999998,49.5
-0.6707317073170732,0.6707317073170732,0.3658536585365854,0.46142578125,0.44677734375,0.78857421875,15.45,27.45,49.65
-0.24390243902439027,1.707317073170732,-1.402439024390244,0.458984375,0.45263671875,0.791015625,16.65,28.65,49.35
-1.2195121951219514,0.12195121951219513,0.12195121951219513,0.45556640625,0.44384765625,0.80078125,16.2,27.45,49.35
-0.853658536585366,-1.1585365853658538,-0.06097560975609757,0.4423828125,0.45068359375,0.79541015625,17.55,29.099999999999998,49.949999999999996
2.1341463414634148,1.0975609756097562,-0.426829268292683,0.47412109375,0.44287109375,0.798828125,16.2,29.4,48.9
-2.6219512195121952,0.48780487804878053,0.1829268292682927,0.45263671875,0.4462890625,0.802734375,15.6,28.799999999999997,50.25
0.7317073170731708,0.9756097560975611,0.426829268292683,0.45166015625,0.43701171875,0.7802734375,14.7,28.2,50.1
2.1951219512195124,-0.1829268292682927,0.3658536585365854,0.44384765625,0.44873046875,0.80224609375,17.099999999999998,28.349999999999998,50.25
-1.5853658536585367,1.402439024390244,-1.9512195121951221,0.4609375,0.4521484375,0.79345703125,16.2,30.15,49.65
0.426829268292683,2.7439024390243905,-0.48780487804878053,0.453125,0.439453125,0.7880859375,17.849999999999998,30.299999999999997,48.75
2.7439024390243905,1.707317073170732,0.9146341463414634,0.453125,0.42919921875,0.79541015625,15.45,28.65,48.9
-1.6463414634146343,0.48780487804878053,1.2804878048780488,0.45458984375,0.44677734375,0.79248046875,16.2,29.7,50.1
-1.707317073170732,0.1829268292682927,-1.829268292682927,0.45849609375,0.44482421875,0.7958984375,16.2,30.9,50.1
1.0365853658536586,1.402439024390244,3.048780487804878,0.46240234375,0.44677734375,0.79248046875,16.95,27.75,49.35
-0.426829268292683,2.987804878048781,-2.6219512195121952,0.4501953125,0.43359375,0.80615234375,17.7,28.2,49.65
-0.6707317073170732,0.3658536585365854,0.6707317073170732,0.45361328125,0.4462890625,0.7919921875,16.8,29.549999999999997,50.55
-0.06097560975609757,-0.06097560975609757,1.8902439024390245,0.44970703125,0.4365234375,0.7958984375,16.65,30.15,50.4
-0.7926829268292683,4.207317073170732,-0.24390243902439027,0.46142578125,0.43994140625,0.798828125,16.05,28.799999999999997,49.5
-0.7317073170731708,0.48780487804878053,-0.6097560975609757,0.45703125,0.43896484375,0.80712890625,16.95,27.0,48.9
-1.524390243902439,0.1829268292682927,1.402439024390244,0.45947265625,0.42919921875,0.79833984375,16.349999999999998,29.099999999999998,50.25
1.2804878048780488,1.829268292682927,-0.6097560975609757,0.4443359375,0.447265625,0.796875,16.8,29.849999999999998,49.949999999999996
0.5487804878048781,0.853658536585366,-1.6463414634146343,0.455078125,0.4404296875,0.802734375,17.4,28.2,50.85
0.853658536585366,0.48780487804878053,-1.0365853658536586,0.4580078125,0.45703125,0.7919921875,15.149999999999999,29.4,51.15
2.9268292682926833,1.524390243902439,0.9146341463414634,0.4560546875,0.4326171875,0.79345703125,17.4,29.7,49.35
0.30487804878048785,0.30487804878048785,-0.9146341463414634,0.4580078125,0.43212890625,0.7880859375,17.4,28.65,49.35
-1.3414634146341464,0.1829268292682927,0.9756097560975611,0.45654296875,0.44775390625,0.80078125,15.45,29.7,48.9
-2.1951219512195124,1.0975609756097562,-1.6463414634146343,0.4599609375,0.43896484375,0.79052734375,14.7,28.95,49.35
-1.7682926829268295,1.5853658536585367,-1.2804878048780488,0.451171875,0.43017578125,0.7890625,16.05,30.299999999999997,49.199999999999996
-2.987804878048781,1.0975609756097562,-0.30487804878048785,0.4619140625,0.43798828125,0.794921875,17.55,29.849999999999998,49.949999999999996
2.5,1.7682926829268295,-2.378048780487805,0.45263671875,0.4521484375,0.79443359375,16.05,29.849999999999998,51.3
-0.7926829268292683,-0.12195121951219513,0.9146341463414634,0.4580078125,0.4384765625,0.81298828125,16.349999999999998,28.349999999999998,48.75
0.426829268292683,-0.12195121951219513,-2.1951219512195124,0.4560546875,0.4443359375,0.79345703125,15.899999999999999,29.4,48.9
0.48780487804878053,0.3658536585365854,-0.7317073170731708,0.453125,0.43505859375,0.77978515625,17.55,30.299999999999997,48.449999999999996
-0.06097560975609757,1.829268292682927,-1.7682926829268295,0.4580078125,0.4482421875,0.796875,15.899999999999999,28.95,50.85
1.0975609756097562,0.12195121951219513,-2.378048780487805,0.462890625,0.447265625,0.78857421875,17.4,28.65,49.65
-0.48780487804878053,-0.12195121951219513,-0.5487804878048781,0.462890625,0.44775390625,0.79638671875,17.4,28.95,48.9
-0.30487804878048785,3.1097560975609757,-1.0975609756097562,0.47119140625,0.447265625,0.78759765625,16.8,28.799999999999997,49.5
-1.0365853658536586,1.4634146341463417,-0.7317073170731708,0.453125,0.44140625,0.8037109375,17.849999999999998,28.799999999999997,49.5
-0.7317073170731708,-0.24390243902439027,-0.12195121951219513,0.4560546875,0.43701171875,0.79541015625,16.95,29.4,49.35
-0.9756097560975611,1.6463414634146343,0.6707317073170732,0.46142578125,0.4345703125,0.80224609375,17.4,29.4,50.1
-2.682926829268293,2.073170731707317,-1.1585365853658538,0.46044921875,0.43310546875,0.798828125,16.65,29.4,48.9
2.682926829268293,0.9146341463414634,-0.06097560975609757,0.46240234375,0.43505859375,0.796875,16.95,28.95,48.6
0.06097560975609757,0.7317073170731708,-0.12195121951219513,0.46337890625,0.44384765625,0.79443359375,16.95,30.15,48.6
3.414634146341464,0.48780487804878053,0.6097560975609757,0.462890625,0.4521484375,0.80615234375,16.95,29.7,48.9
-0.12195121951219513,-0.7317073170731708,0.7926829268292683,0.45361328125,0.45166015625,0.78271484375,15.299999999999999,28.05,52.05
-0.6707317073170732,0.9146341463414634,-1.6463414634146343,0.4619140625,0.4462890625,0.7958984375,17.099999999999998,28.05,49.949999999999996
-0.30487804878048785,3.414634146341464,-0.7317073170731708,0.4658203125,0.4443359375,0.80419921875,16.95,28.95,49.65
-0.7317073170731708,3.8414634146341466,-2.6219512195121952,0.46435546875,0.44775390625,0.80322265625,16.65,30.45,50.1
-2.073170731707317,0.7317073170731708,0.426829268292683,0.4521484375,0.4462890625,0.7958984375,17.55,29.099999999999998,49.949999999999996
-0.06097560975609757,2.378048780487805,-0.3658536585365854,0.4638671875,0.439453125,0.791015625,15.45,28.95,50.1
1.3414634146341464,1.3414634146341464,0.30487804878048785,0.45703125,0.44677734375,0.7890625,17.099999999999998,29.849999999999998,50.55
-0.426829268292683,0.6097560975609757,-0.48780487804878053,0.45361328125,0.42431640625,0.79638671875,14.85,29.099999999999998,48.75
1.707317073170732,2.1951219512195124,-1.2804878048780488,0.44873046875,0.4521484375,0.79345703125,16.349999999999998,26.849999999999998,51.0
-2.7439024390243905,0.3658536585365854,1.5853658536585367,0.44970703125,0.45556640625,0.8017578125,15.899999999999999,29.4,48.9
-2.7439024390243905,0.853658536585366,-0.06097560975609757,0.447265625,0.45361328125,0.7890625,16.65,28.65,50.1
0.30487804878048785,0.7317073170731708,0.6707317073170732,0.46435546875,0.42919921875,0.806640625,16.8,28.799999999999997,49.199999999999996
-2.073170731707317,2.439024390243903,-1.829268292682927,0.45654296875,0.4384765625,0.7998046875,15.299999999999999,29.549999999999997,48.75
-0.426829268292683,0.30487804878048785,-1.2804878048780488,0.4677734375,0.44140625,0.802734375,16.05,29.099999999999998,49.199999999999996
-2.0121951219512195,0.3658536585365854,-0.12195121951219513,0.458984375,0.43798828125,0.79248046875,18.599999999999998,30.75,49.199999999999996
1.0365853658536586,0.6707317073170732,-1.1585365853658538,0.447265625,0.447265625,0.7919921875,15.6,29.099999999999998,49.199999999999996
0.12195121951219513,1.3414634146341464,-0.853658536585366,0.4462890625,0.4482421875,0.7919921875,16.95,28.65,50.4
2.6219512195121952,0.7926829268292683,1.3414634146341464,0.4619140625,0.45751953125,0.806640625,16.65,28.65,49.35
-1.8902439024390245,2.804878048780488,-1.707317073170732,0.47216796875,0.43798828125,0.8037109375,16.349999999999998,29.099999999999998,50.25
0.7317073170731708,1.2804878048780488,2.5,0.46044921875,0.4501953125,0.79638671875,16.95,27.75,50.1
-1.5853658536585367,-0.06097560975609757,-0.7926829268292683,0.44873046875,0.447265625,0.794921875,15.6,28.799999999999997,50.55
-1.0365853658536586,-0.3658536585365854,-1.2195121951219514,0.4619140625,0.44775390625,0.791015625,16.95,29.4,50.1
0.30487804878048785,0.7926829268292683,-2.5,0.46337890625,0.45166015625,0.79345703125,16.8,28.799999999999997,49.5
-1.0975609756097562,2.0121951219512195,3.414634146341464,0.4580078125,0.4423828125,0.80029296875,16.349999999999998,29.099999999999998,50.55
1.9512195121951221,-0.06097560975609757,1.0975609756097562,0.45654296875,0.44189453125,0.79150390625,16.95,28.65,48.6
0.24390243902439027,0.06097560975609757,-0.426829268292683,0.4580078125,0.4453125,0.80517578125,15.149999999999999,28.65,48.9
0.0,-0.06097560975609757,-1.402439024390244,0.45703125,0.4296875,0.7978515625,16.65,28.65,49.65
-0.6097560975609757,0.6097560975609757,1.829268292682927,0.466796875,0.4365234375,0.78662109375,16.2,29.7,49.35
0.48780487804878053,0.5487804878048781,1.7682926829268295,0.462890625,0.443359375,0.7939453125,17.099999999999998,29.849999999999998,48.75
-1.4634146341463417,1.9512195121951221,2.073170731707317,0.4580078125,0.44091796875,0.8115234375,18.0,29.7,49.65
-1.7682926829268295,-3.353658536585366,-0.7926829268292683,0.4619140625,0.43701171875,0.79638671875,17.55,27.3,49.199999999999996
1.1585365853658538,2.9268292682926833,-2.3170731707317076,0.46484375,0.4462890625,0.7998046875,17.099999999999998,29.099999999999998,48.75
-2.378048780487805,-0.1829268292682927,1.829268292682927,0.462890625,0.44970703125,0.78515625,14.7,27.75,50.1
0.0,2.0121951219512195,0.12195121951219513,0.43994140625,0.4443359375,0.791015625,16.349999999999998,28.349999999999998,49.5
1.9512195121951221,1.524390243902439,2.5609756097560976,0.46044921875,0.4306640625,0.796875,17.55,29.099999999999998,48.0
-1.9512195121951221,0.30487804878048785,-2.7439024390243905,0.4521484375,0.4384765625,0.7919921875,16.05,29.549999999999997,49.949999999999996
2.6219512195121952,-0.853658536585366,-0.06097560975609757,0.44873046875,0.44677734375,0.78271484375,17.4,28.65,48.9
-0.1829268292682927,0.48780487804878053,0.30487804878048785,0.43896484375,0.44091796875,0.79833984375,17.099999999999998,29.549999999999997,50.25
1.2195121951219514,3.1707317073170733,-4.146341463414634,0.46337890625,0.45068359375,0.79931640625,17.849999999999998,28.799999999999997,49.949999999999996
-1.707317073170732,1.3414634146341464,1.1585365853658538,0.451171875,0.4296875,0.79931640625,17.4,28.65,50.1
-0.1829268292682927,1.2804878048780488,-1.1585365853658538,0.462890625,0.451171875,0.7958984375,15.6,29.099999999999998,49.5
0.12195121951219513,2.5609756097560976,-2.0121951219512195,0.46142578125,0.4365234375,0.78759765625,16.65,28.65,50.4
3.9024390243902443,0.6707317073170732,-0.24390243902439027,0.4619140625,0.4326171875,0.80029296875,16.349999999999998,28.349999999999998,49.199999999999996
-0.24390243902439027,-0.48780487804878053,2.5609756097560976,0.455078125,0.44482421875,0.81005859375,16.95,29.4,49.65
-1.0975609756097562,2.378048780487805,0.9756097560975611,0.4560546875,0.44384765625,0.7978515625,16.05,28.349999999999998,49.949999999999996
1.524390243902439,0.1829268292682927,-3.4756097560975614,0.46826171875,0.44921875,0.79541015625,14.549999999999999,28.05,49.199999999999996
-2.682926829268293,-0.6707317073170732,0.24390243902439027,0.4521484375,0.43505859375,0.78955078125,16.8,30.299999999999997,49.5
2.3170731707317076,2.073170731707317,1.402439024390244,0.453125,0.44580078125,0.78857421875,15.899999999999999,29.4,50.1
1.7682926829268295,-0.48780487804878053,2.5,0.45068359375,0.439453125,0.79541015625,16.95,28.95,50.1
-0.9146341463414634,0.12195121951219513,0.30487804878048785,0.4482421875,0.4384765625,0.791015625,16.8,29.099999999999998,49.199999999999996
-1.5853658536585367,1.2195121951219514,-1.1585365853658538,0.46142578125,0.42919921875,0.80224609375,17.099999999999998,29.549999999999997,49.199999999999996
0.6707317073170732,1.8902439024390245,-2.378048780487805,0.45947265625,0.447265625,0.80419921875,16.2,30.45,49.65
-0.24390243902439027,1.2195121951219514,0.06097560975609757,0.45947265625,0.4326171875,0.79150390625,15.149999999999999,28.95,50.1
-1.524390243902439,2.5,-0.426829268292683,0.451171875,0.43798828125,0.79931640625,17.099999999999998,28.799999999999997,49.949999999999996
1.707317073170732,0.6707317073170732,-0.06097560975609757,0.45947265625,0.44482421875,0.7998046875,17.55,30.75,50.25
-1.4634146341463417,0.0,0.6097560975609757,0.45068359375,0.451171875,0.7919921875,17.4,27.45,49.35
0.48780487804878053,1.4634146341463417,-0.3658536585365854,0.45556640625,0.439453125,0.79638671875,17.4,29.4,50.4
-3.1707317073170733,0.3658536585365854,1.402439024390244,0.466796875,0.4453125,0.79736328125,16.349999999999998,28.05,50.25
-0.426829268292683,0.6707317073170732,0.0,0.45458984375,0.4404296875,0.78662109375,17.7,28.95,52.199999999999996
-1.402439024390244,-0.1829268292682927,0.3658536585365854,0.46142578125,0.4365234375,0.8115234375,17.849999999999998,28.349999999999998,49.5
-0.9146341463414634,2.6219512195121952,0.6097560975609757,0.4541015625,0.44091796875,0.79638671875,16.65,27.75,50.4
1.0975609756097562,0.9146341463414634,-1.5853658536585367,0.45849609375,0.44140625,0.79833984375,16.65,28.65,49.35
0.12195121951219513,1.707317073170732,-3.8414634146341466,0.462890625,0.4306640625,0.80419921875,16.65,27.75,49.35
1.0365853658536586,-1.3414634146341464,-0.3658536585365854,0.45947265625,0.4423828125,0.79541015625,16.95,28.65,48.6
-0.6097560975609757,0.1829268292682927,2.378048780487805,0.4453125,0.42138671875,0.80224609375,15.299999999999999,29.849999999999998,49.949999999999996
-0.7317073170731708,1.6463414634146343,-2.439024390243903,0.46044921875,0.4482421875,0.796875,16.2,29.4,51.449999999999996
-0.9146341463414634,2.3170731707317076,-1.6463414634146343,0.45654296875,0.44384765625,0.80517578125,15.149999999999999,30.45,48.6
1.0365853658536586,1.6463414634146343,0.24390243902439027,0.4541015625,0.4345703125,0.791015625,17.849999999999998,28.05,49.5
1.2804878048780488,-0.1829268292682927,1.6463414634146343,0.45703125,0.435546875,0.7958984375,16.2,28.65,50.1
-2.0121951219512195,1.707317073170732,-0.6707317073170732,0.44873046875,0.44580078125,0.78564453125,16.65,29.4,49.35
0.7317073170731708,1.0365853658536586,0.30487804878048785,0.4677734375,0.44775390625,0.79443359375,17.099999999999998,29.549999999999997,48.449999999999996
0.12195121951219513,2.25609756097561,0.6097560975609757,0.46728515625,0.4404296875,0.79345703125,17.4,28.65,49.35
0.9756097560975611,1.8902439024390245,-0.12195121951219513,0.462890625,0.4482421875,0.80078125,17.099999999999998,29.849999999999998,50.25
-2.439024390243903,1.8902439024390245,-1.4634146341463417,0.4619140625,0.44091796875,0.79931640625,15.899999999999999,28.65,48.9
2.1341463414634148,1.2804878048780488,-0.48780487804878053,0.44921875,0.44921875,0.79052734375,16.05,28.349999999999998,48.75
1.0975609756097562,1.2804878048780488,0.7317073170731708,0.46435546875,0.44189453125,0.80859375,16.65,30.15,50.4
-0.6097560975609757,1.9512195121951221,1.524390243902439,0.46337890625,0.44873046875,0.79833984375,16.349999999999998,28.05,49.199999999999996
1.2195121951219514,1.2804878048780488,0.12195121951219513,0.4482421875,0.4375,0.81201171875,16.05,28.349999999999998,50.25
-2.5609756097560976,-1.0365853658536586,0.9146341463414634,0.4521484375,0.4443359375,0.79931640625,16.65,28.95,48.6
1.3414634146341464,1.9512195121951221,0.426829268292683,0.453125,0.45068359375,0.78857421875,16.8,29.549999999999997,49.949999999999996
2.1951219512195124,1.829268292682927,-1.2195121951219514,0.4580078125,0.45166015625,0.7880859375,16.95,28.65,49.65
3.1707317073170733,-0.7926829268292683,-1.6463414634146343,0.447265625,0.44140625,0.796875,16.65,30.15,49.35
0.48780487804878053,1.2195121951219514,0.24390243902439027,0.46337890625,0.447265625,0.798828125,16.349999999999998,30.299999999999997,49.5
0.48780487804878053,2.3170731707317076,-0.1829268292682927,0.4580078125,0.43115234375,0.80029296875,16.8,28.799999999999997,49.5
-1.829268292682927,-0.24390243902439027,0.5487804878048781,0.45458984375,0.43359375,0.798828125,15.149999999999999,28.95,50.1
-1.402439024390244,0.7317073170731708,-0.6097560975609757,0.451171875,0.4345703125,0.79541015625,15.899999999999999,27.75,49.35
2.073170731707317,0.12195121951219513,-0.6097560975609757,0.4521484375,0.4365234375,0.79541015625,16.349999999999998,29.549999999999997,49.949999999999996
-1.6463414634146343,1.0975609756097562,0.7926829268292683,0.45654296875,0.4375,0.8046875,15.299999999999999,29.549999999999997,49.5
3.658536585365854,0.3658536585365854,-1.0975609756097562,0.45263671875,0.44140625,0.80029296875,15.899999999999999,28.95,49.35
-1.524390243902439,1.1585365853658538,-0.06097560975609757,0.47265625,0.439453125,0.8017578125,16.349999999999998,28.799999999999997,50.25
1.8902439024390245,-0.30487804878048785,-2.073170731707317,0.45361328125,0.4453125,0.80029296875,17.4,27.75,49.35
-2.1951219512195124,-0.9756097560975611,-0.9146341463414634,0.4541015625,0.44970703125,0.8076171875,18.0,29.7,50.4
0.9146341463414634,-0.6097560975609757,-0.3658536585365854,0.45849609375,0.44580078125,0.79443359375,16.349999999999998,29.549999999999997,50.25
-1.0365853658536586,1.8902439024390245,-0.853658536585366,0.466796875,0.43896484375,0.78662109375,16.65,28.2,49.35
1.402439024390244,2.3170731707317076,0.9146341463414634,0.46728515625,0.4609375,0.787109375,17.4,29.4,48.6
0.853658536585366,2.3170731707317076,-0.5487804878048781,0.44970703125,0.4326171875,0.7890625,16.65,28.65,50.85
-3.8414634146341466,2.1951219512195124,-0.30487804878048785,0.46630859375,0.44189453125,0.7861328125,16.95,29.4,48.9
1.402439024390244,0.9756097560975611,-2.0121951219512195,0.4638671875,0.4423828125,0.79931640625,16.8,29.849999999999998,46.949999999999996
-1.9512195121951221,0.3658536585365854,0.6097560975609757,0.45361328125,0.44384765625,0.80078125,16.2,27.75,48.9
1.402439024390244,2.439024390243903,0.12195121951219513,0.46240234375,0.43798828125,0.79345703125,16.65,29.7,50.1
2.0121951219512195,0.6097560975609757,-0.6707317073170732,0.4482421875,0.44384765625,0.7939453125,18.0,29.7,48.9
0.9756097560975611,1.829268292682927,0.48780487804878053,0.46875,0.4541015625,0.79931640625,16.95,28.2,49.35
2.439024390243903,0.24390243902439027,0.5487804878048781,0.45703125,0.43701171875,0.7880859375,16.65,28.95,48.9
1.2804878048780488,0.12195121951219513,0.24390243902439027,0.46044921875,0.44384765625,0.80078125,15.299999999999999,28.799999999999997,50.25
1.402439024390244,-0.5487804878048781,-0.06097560975609757,0.4658203125,0.43212890625,0.798828125,16.95,28.95,50.4
-2.25609756097561,-1.1585365853658538,-0.7926829268292683,0.4638671875,0.44482421875,0.78515625,16.95,28.2,48.9
2.5,2.0121951219512195,0.3658536585365854,0.4404296875,0.4296875,0.7939453125,16.95,29.4,49.65
-1.0975609756097562,0.7926829268292683,-1.6463414634146343,0.46337890625,0.447265625,0.802734375,16.349999999999998,31.049999999999997,49.949999999999996
0.7926829268292683,0.5487804878048781,0.24390243902439027,0.4580078125,0.447265625,0.79638671875,16.65,28.95,50.1
-0.7926829268292683,0.24390243902439027,1.6463414634146343,0.46630859375,0.4345703125,0.80615234375,15.6,29.099999999999998,48.75
-0.1829268292682927,2.073170731707317,-0.9146341463414634,0.4638671875,0.44677734375,0.806640625,16.8,29.099999999999998,51.3
0.1829268292682927,1.402439024390244,-3.048780487804878,0.45751953125,0.42919921875,0.7958984375,17.4,28.2,50.1
-1.0975609756097562,2.0121951219512195,-2.804878048780488,0.46142578125,0.46240234375,0.794921875,15.45,28.65,50.4
1.7682926829268295,-0.48780487804878053,3.1707317073170733,0.455078125,0.43701171875,0.8017578125,16.349999999999998,28.799999999999997,49.199999999999996
-0.1829268292682927,0.24390243902439027,1.0975609756097562,0.4580078125,0.45166015625,0.8056640625,16.349999999999998,28.05,49.5
-1.2804878048780488,1.1585365853658538,1.5853658536585367,0.4599609375,0.43798828125,0.798828125,16.05,28.799999999999997,50.55
1.524390243902439,0.853658536585366,-0.3658536585365854,0.46484375,0.4326171875,0.7900390625,17.7,29.7,49.65
0.6097560975609757,1.3414634146341464,1.1585365853658538,0.46240234375,0.44189453125,0.806640625,16.8,29.849999999999998,50.25
-2.5,2.9268292682926833,-0.9146341463414634,0.4560546875,0.431640625,0.7998046875,16.65,28.2,50.1
-0.9756097560975611,1.2804878048780488,-0.7317073170731708,0.46630859375,0.43505859375,0.79248046875,16.05,29.549999999999997,49.949999999999996
0.6097560975609757,2.0121951219512195,2.1951219512195124,0.44921875,0.44482421875,0.8056640625,18.3,29.099999999999998,50.55
-2.5609756097560976,4.024390243902439,-1.2195121951219514,0.4462890625,0.44921875,0.78759765625,16.95,30.45,47.85
-0.06097560975609757,1.829268292682927,-0.7317073170731708,0.45556640625,0.43994140625,0.7998046875,14.549999999999999,28.349999999999998,49.5
-2.378048780487805,-0.7317073170731708,1.3414634146341464,0.45263671875,0.44873046875,0.7958984375,18.3,29.099999999999998,50.25
-1.6463414634146343,1.0365853658536586,0.5487804878048781,0.4609375,0.43701171875,0.8037109375,16.95,29.7,50.4
-0.30487804878048785,0.6097560975609757,0.3658536585365854,0.45361328125,0.43994140625,0.7900390625,16.8,29.849999999999998,50.55
-0.1829268292682927,3.963414634146342,1.3414634146341464,0.45166015625,0.4619140625,0.80029296875,16.65,28.65,49.35
0.30487804878048785,-0.06097560975609757,-0.853658536585366,0.4677734375,0.453125,0.80712890625,17.4,28.2,49.65
1.3414634146341464,0.7317073170731708,0.1829268292682927,0.4443359375,0.4423828125,0.7880859375,16.65,28.65,49.65
-1.1585365853658538,2.1341463414634148,0.48780487804878053,0.44921875,0.44091796875,0.8056640625,17.099999999999998,28.349999999999998,49.5
-0.853658536585366,2.1951219512195124,1.1585365853658538,0.447265625,0.4521484375,0.79248046875,16.8,30.299999999999997,49.949999999999996
0.24390243902439027,1.402439024390244,-1.0975609756097562,0.46044921875,0.43798828125,0.8017578125,15.299999999999999,29.849999999999998,48.75
-1.2804878048780488,2.7439024390243905,-0.853658536585366,0.45849609375,0.4365234375,0.80224609375,15.6,28.799999999999997,49.5
0.7926829268292683,-0.7926829268292683,0.426829268292683,0.4638671875,0.44384765625,0.79296875,15.6,29.099999999999998,49.199999999999996
2.7439024390243905,2.9268292682926833,1.1585365853658538,0.45947265625,0.44775390625,0.8037109375,17.099999999999998,29.849999999999998,51.0
-2.3170731707317076,1.7682926829268295,-0.1829268292682927,0.451171875,0.4423828125,0.79345703125,17.099999999999998,29.849999999999998,49.949999999999996
2.6219512195121952,0.853658536585366,-0.30487804878048785,0.45068359375,0.453125,0.796875,16.05,29.099999999999998,49.5
0.1829268292682927,0.6097560975609757,0.9756097560975611,0.44873046875,0.44140625,0.8056640625,16.2,28.95,50.1
-0.5487804878048781,0.0,-0.6097560975609757,0.466796875,0.4443359375,0.7998046875,15.45,28.95,50.1
-1.1585365853658538,2.682926829268293,1.6463414634146343,0.4609375,0.4443359375,0.79443359375,17.4,28.95,49.35
0.12195121951219513,0.06097560975609757,1.0975609756097562,0.45751953125,0.44091796875,0.796875,16.05,28.05,49.199999999999996
-0.853658536585366,-0.7926829268292683,-1.402439024390244,0.458984375,0.4404296875,0.80322265625,16.8,29.099999999999998,49.5
0.48780487804878053,3.4756097560975614,-1.707317073170732,0.45654296875,0.4501953125,0.79931640625,16.349999999999998,29.099999999999998,49.5
-0.24390243902439027,0.6707317073170732,-2.5609756097560976,0.455078125,0.4375,0.79541015625,16.8,28.349999999999998,50.55
-1.4634146341463417,2.8658536585365857,-1.0365853658536586,0.45458984375,0.4384765625,0.80224609375,15.45,28.65,50.1
0.48780487804878053,3.048780487804878,-3.1097560975609757,0.46826171875,0.42919921875,0.80322265625,15.6,28.349999999999998,49.5
-0.9756097560975611,3.048780487804878,1.5853658536585367,0.45751953125,0.4375,0.7861328125,16.8,29.549999999999997,49.949999999999996
4.878048780487806,1.9512195121951221,-0.9146341463414634,0.4658203125,0.44677734375,0.79736328125,16.95,28.65,48.9
1.402439024390244,-0.7317073170731708,-1.524390243902439,0.4560546875,0.43798828125,0.79833984375,16.65,28.95,49.65
2.5609756097560976,-0.06097560975609757,-1.5853658536585367,0.4619140625,0.45654296875,0.79833984375,17.4,29.7,50.85
1.7682926829268295,1.6463414634146343,-0.24390243902439027,0.45654296875,0.44287109375,0.783203125,17.55,28.349999999999998,48.75
-0.7926829268292683,-0.6097560975609757,-1.0365853658536586,0.45166015625,0.443359375,0.80029296875,16.349999999999998,28.349999999999998,49.949999999999996
-0.426829268292683,-0.3658536585365854,-0.6097560975609757,0.4677734375,0.44873046875,0.791015625,16.05,29.549999999999997,48.75
-2.073170731707317,1.524390243902439,-1.5853658536585367,0.45556640625,0.44140625,0.7998046875,16.95,28.95,48.9
0.12195121951219513,2.7439024390243905,-1.0365853658536586,0.4443359375,0.44091796875,0.7998046875,16.8,29.849999999999998,50.25
-2.6219512195121952,2.073170731707317,-0.5487804878048781,0.46728515625,0.4443359375,0.80322265625,16.349999999999998,28.05,49.5
1.2195121951219514,0.0,1.2804878048780488,0.4609375,0.44775390625,0.798828125,17.099999999999998,28.349999999999998,51.0
0.48780487804878053,0.9756097560975611,0.30487804878048785,0.46142578125,0.43896484375,0.79736328125,16.05,28.05,50.25
0.5487804878048781,-1.0365853658536586,-0.9756097560975611,0.47412109375,0.4384765625,0.794921875,17.099999999999998,29.549999999999997,49.5
3.048780487804878,1.402439024390244,0.06097560975609757,0.46142578125,0.45849609375,0.806640625,16.8,28.349999999999998,50.55
-0.6097560975609757,2.682926829268293,-1.0365853658536586,0.46337890625,0.443359375,0.79248046875,15.299999999999999,28.799999999999997,49.5
1.402439024390244,-0.6707317073170732,0.853658536585366,0.453125,0.443359375,0.8046875,16.8,29.099999999999998,49.199999999999996
0.426829268292683,-1.524390243902439,1.6463414634146343,0.47119140625,0.443359375,0.794921875,14.7,28.95,50.1
1.829268292682927,0.12195121951219513,-0.7317073170731708,0.45654296875,0.44482421875,0.80029296875,16.349999999999998,29.549999999999997,49.199999999999996
-2.987804878048781,2.5,0.24390243902439027,0.4716796875,0.4375,0.78857421875,16.2,29.7,48.9
0.7317073170731708,1.0975609756097562,-0.1829268292682927,0.45751953125,0.44580078125,0.80078125,17.849999999999998,28.349999999999998,48.449999999999996
-0.6097560975609757,0.7317073170731708,2.5609756097560976,0.46533203125,0.4306640625,0.78759765625,16.8,28.349999999999998,49.199999999999996
-0.7317073170731708,-0.1829268292682927,0.426829268292683,0.4462890625,0.43896484375,0.810546875,17.4,28.2,48.9
2.1341463414634148,1.0975609756097562,-0.1829268292682927,0.4453125,0.45654296875,0.79541015625,16.2,27.75,49.65
-1.402439024390244,0.1829268292682927,-0.5487804878048781,0.46435546875,0.4345703125,0.7998046875,17.099999999999998,27.3,51.3
1.5853658536585367,1.4634146341463417,-2.3170731707317076,0.462890625,0.44189453125,0.79345703125,16.65,28.2,48.9
0.853658536585366,1.402439024390244,-2.1951219512195124,0.462890625,0.43359375,0.79833984375,16.349999999999998,29.099999999999998,50.25
1.6463414634146343,2.1951219512195124,-1.2804878048780488,0.45361328125,0.451171875,0.79248046875,16.05,28.349999999999998,48.449999999999996
-0.6097560975609757,1.3414634146341464,1.8902439024390245,0.44287109375,0.4375,0.79443359375,16.05,28.349999999999998,49.949999999999996
1.2804878048780488,-1.0365853658536586,1.5853658536585367,0.45703125,0.44580078125,0.79931640625,16.8,29.099999999999998,48.75
-0.48780487804878053,1.524390243902439,-1.6463414634146343,0.45166015625,0.44921875,0.78955078125,16.65,29.4,48.9
-1.7682926829268295,0.30487804878048785,0.1829268292682927,0.45751953125,0.44140625,0.79150390625,16.349999999999998,29.099999999999998,48.449999999999996
-1.0365853658536586,1.0975609756097562,-1.707317073170732,0.447265625,0.44384765625,0.810546875,15.6,28.799999999999997,51.0
-0.6707317073170732,-2.1341463414634148,-0.12195121951219513,0.451171875,0.439453125,0.8037109375,18.3,27.599999999999998,49.199999999999996
1.0975609756097562,2.073170731707317,-0.7317073170731708,0.4599609375,0.44580078125,0.80810546875,16.8,28.799999999999997,48.449999999999996
1.0975609756097562,1.7682926829268295,0.9756097560975611,0.4423828125,0.4345703125,0.8056640625,16.05,28.349999999999998,49.949999999999996
2.682926829268293,1.4634146341463417,-0.06097560975609757,0.4541015625,0.45703125,0.802734375,16.05,29.549999999999997,48.75
2.25609756097561,1.2804878048780488,1.8902439024390245,0.44873046875,0.4345703125,0.81005859375,16.05,29.549999999999997,49.949999999999996
-0.7926829268292683,0.5487804878048781,-2.5609756097560976,0.46142578125,0.4423828125,0.78662109375,16.2,28.95,51.9
2.073170731707317,1.0975609756097562,-1.2195121951219514,0.47509765625,0.451171875,0.79443359375,16.2,28.2,51.15
-1.707317073170732,0.426829268292683,2.9268292682926833,0.4580078125,0.4306640625,0.79931640625,16.05,27.3,48.75
0.06097560975609757,-0.3658536585365854,2.1341463414634148,0.453125,0.443359375,0.7919921875,16.05,29.099999999999998,49.199999999999996
-2.1341463414634148,0.6707317073170732,0.24390243902439027,0.46240234375,0.43212890625,0.791015625,16.349999999999998,28.799999999999997,50.55
0.06097560975609757,0.12195121951219513,1.402439024390244,0.4541015625,0.43701171875,0.79833984375,15.45,28.95,50.1
0.30487804878048785,0.48780487804878053,-0.853658536585366,0.4462890625,0.44287109375,0.80517578125,16.8,29.099999999999998,50.25
-0.3658536585365854,0.6707317073170732,-1.9512195121951221,0.451171875,0.44775390625,0.78955078125,16.05,29.099999999999998,49.199999999999996
2.682926829268293,-0.9756097560975611,1.6463414634146343,0.45703125,0.43798828125,0.79833984375,18.45,28.95,49.65
0.06097560975609757,1.5853658536585367,-0.6097560975609757,0.453125,0.44189453125,0.78515625,16.8,29.549999999999997,49.5
3.048780487804878,1.707317073170732,-2.439024390243903,0.4609375,0.43896484375,0.7890625,17.099999999999998,28.799999999999997,49.199999999999996
-2.682926829268293,1.1585365853658538,1.2804878048780488,0.44580078125,0.44482421875,0.79345703125,16.8,29.099999999999998,50.55
-1.829268292682927,2.3170731707317076,-0.12195121951219513,0.4541015625,0.43701171875,0.796875,17.099999999999998,29.849999999999998,49.5
-0.7926829268292683,1.3414634146341464,1.707317073170732,0.4609375,0.44580078125,0.80126953125,16.05,29.099999999999998,49.5
-2.6219512195121952,3.1097560975609757,-1.6463414634146343,0.4501953125,0.45068359375,0.7939453125,16.05,29.099999999999998,49.5
0.24390243902439027,0.7926829268292683,1.0975609756097562,0.44970703125,0.443359375,0.79443359375,16.65,28.65,49.65
-0.3658536585365854,3.048780487804878,0.24390243902439027,0.4560546875,0.4404296875,0.80810546875,16.349999999999998,30.75,49.5
1.5853658536585367,-1.1585365853658538,0.6097560975609757,0.47216796875,0.44189453125,0.79248046875,16.95,29.7,49.65
-1.8902439024390245,0.6707317073170732,-0.24390243902439027,0.451171875,0.4306640625,0.79541015625,15.899999999999999,28.95,49.35
1.829268292682927,1.829268292682927,-1.8902439024390245,0.4580078125,0.43310546875,0.802734375,17.099999999999998,28.799999999999997,49.5
0.9756097560975611,0.5487804878048781,-0.3658536585365854,0.44775390625,0.44873046875,0.78173828125,16.349999999999998,29.099999999999998,49.199999999999996
-0.6097560975609757,0.0,0.853658536585366,0.47607421875,0.4462890625,0.7958984375,15.899999999999999,29.7,49.35
1.0975609756097562,-0.426829268292683,-1.8902439024390245,0.46044921875,0.44775390625,0.79296875,16.8,28.349999999999998,49.199999999999996
-2.7439024390243905,1.8902439024390245,-0.5487804878048781,0.4580078125,0.443359375,0.78955078125,17.4,28.65,50.4
-0.1829268292682927,2.1341463414634148,0.7926829268292683,0.4541015625,0.44091796875,0.8017578125,16.65,30.9,50.85
-2.682926829268293,0.853658536585366,-0.9756097560975611,0.4443359375,0.44970703125,0.80517578125,15.6,28.799999999999997,49.199999999999996
0.0,-0.5487804878048781,0.7317073170731708,0.4638671875,0.43896484375,0.7919921875,16.95,28.2,50.4
1.707317073170732,-0.24390243902439027,2.0121951219512195,0.4482421875,0.44140625,0.8046875,18.45,28.2,49.35
1.2804878048780488,1.0365853658536586,-1.524390243902439,0.46044921875,0.443359375,0.7890625,16.2,29.7,50.4
1.2804878048780488,-0.30487804878048785,-0.7926829268292683,0.47021484375,0.47119140625,0.7958984375,16.95,28.95,50.4
0.9146341463414634,-0.3658536585365854,-1.3414634146341464,0.4501953125,0.45068359375,0.79345703125,14.7,28.95,49.35
-1.9512195121951221,2.5,-2.25609756097561,0.4736328125,0.43994140625,0.80615234375,16.349999999999998,29.549999999999997,48.75
-1.402439024390244,3.963414634146342,1.9512195121951221,0.455078125,0.44189453125,0.8037109375,16.05,29.849999999999998,49.949999999999996
1.6463414634146343,1.524390243902439,0.853658536585366,0.45263671875,0.44091796875,0.79150390625,16.05,29.549999999999997,48.75
-3.780487804878049,1.829268292682927,-0.7926829268292683,0.458984375,0.439453125,0.79833984375,17.849999999999998,30.75,48.449999999999996
-0.30487804878048785,-0.06097560975609757,-1.6463414634146343,0.45556640625,0.44140625,0.8037109375,16.65,30.45,49.35
0.853658536585366,-1.6463414634146343,-0.1829268292682927,0.46044921875,0.43505859375,0.7998046875,16.95,29.4,49.65
3.2926829268292686,1.5853658536585367,2.378048780487805,0.45458984375,0.44140625,0.78759765625,16.05,29.549999999999997,49.949999999999996
0.6707317073170732,-0.12195121951219513,-1.829268292682927,0.4580078125,0.44287109375,0.8037109375,16.8,31.049999999999997,49.949999999999996
1.524390243902439,2.439024390243903,-1.2195121951219514,0.44677734375,0.439453125,0.791015625,17.7,28.65,50.1
1.6463414634146343,2.1951219512195124,-0.06097560975609757,0.455078125,0.44921875,0.79541015625,16.05,28.799999999999997,50.55
-0.30487804878048785,-0.24390243902439027,-1.3414634146341464,0.45703125,0.44580078125,0.7919921875,16.65,29.4,49.35
1.1585365853658538,1.8902439024390245,-0.853658536585366,0.45947265625,0.45458984375,0.7978515625,16.05,28.799999999999997,50.55
-3.1707317073170733,2.25609756097561,1.4634146341463417,0.447265625,0.44580078125,0.8017578125,15.6,28.799999999999997,50.55
1.7682926829268295,2.3170731707317076,-0.6097560975609757,0.4697265625,0.44775390625,0.794921875,16.349999999999998,28.799999999999997,48.449999999999996
0.5487804878048781,0.24390243902439027,-2.073170731707317,0.45556640625,0.43896484375,0.80908203125,16.8,29.849999999999998,49.5
-0.48780487804878053,2.25609756097561,-3.353658536585366,0.4638671875,0.44287109375,0.78662109375,18.0,28.2,49.65
1.5853658536585367,0.48780487804878053,-0.30487804878048785,0.46142578125,0.44921875,0.80078125,15.899999999999999,29.7,50.4
-1.524390243902439,1.402439024390244,1.8902439024390245,0.462890625,0.44775390625,0.7919921875,16.05,28.349999999999998,50.25
2.5609756097560976,-0.6097560975609757,-1.0365853658536586,0.466796875,0.44091796875,0.79931640625,17.55,28.799999999999997,49.199999999999996
2.1341463414634148,2.073170731707317,-0.12195121951219513,0.44677734375,0.4423828125,0.7919921875,16.05,28.349999999999998,50.25
-0.9146341463414634,3.1707317073170733,-3.231707317073171,0.46435546875,0.4560546875,0.79833984375,16.349999999999998,29.849999999999998,48.449999999999996
-2.0121951219512195,4.146341463414634,-1.0975609756097562,0.4658203125,0.43896484375,0.7880859375,16.95,28.95,48.9
0.24390243902439027,-0.3658536585365854,0.9146341463414634,0.4599609375,0.44677734375,0.79248046875,15.299999999999999,28.349999999999998,49.199999999999996
-1.1585365853658538,1.5853658536585367,-2.0121951219512195,0.474609375,0.4443359375,0.80224609375,17.099999999999998,28.05,49.199999999999996
0.48780487804878053,-0.3658536585365854,-0.24390243902439027,0.458984375,0.43408203125,0.80322265625,16.8,28.349999999999998,50.55
0.0,1.8902439024390245,0.9146341463414634,0.458984375,0.43896484375,0.79345703125,17.099999999999998,29.099999999999998,50.25
-1.2195121951219514,1.3414634146341464,-0.1829268292682927,0.4609375,0.43212890625,0.80322265625,16.2,28.95,49.65
1.7682926829268295,1.0975609756097562,-0.48780487804878053,0.458984375,0.4501953125,0.7939453125,17.099999999999998,29.099999999999998,50.55
-0.853658536585366,0.3658536585365854,-1.2195121951219514,0.4599609375,0.43212890625,0.79052734375,17.099999999999998,28.349999999999998,49.949999999999996
-1.1585365853658538,0.3658536585365854,0.5487804878048781,0.45654296875,0.4462890625,0.79345703125,17.4,29.7,49.65
-0.30487804878048785,-0.3658536585365854,-0.5487804878048781,0.45556640625,0.43896484375,0.798828125,16.8,30.299999999999997,49.949999999999996
-0.6707317073170732,0.3658536585365854,0.6097560975609757,0.4501953125,0.44384765625,0.7978515625,16.05,29.099999999999998,49.5
-0.6707317073170732,0.6707317073170732,0.3658536585365854,0.46142578125,0.44677734375,0.78857421875,15.45,27.45,49.65
-0.24390243902439027,1.707317073170732,-1.402439024390244,0.458984375,0.45263671875,0.791015625,16.65,28.65,49.35
-1.2195121951219514,0.12195121951219513,0.12195121951219513,0.45556640625,0.44384765625,0.80078125,16.2,27.45,49.35
-0.853658536585366,-1.1585365853658538,-0.06097560975609757,0.4423828125,0.45068359375,0.79541015625,17.55,29.099999999999998,49.949999999999996
2.1341463414634148,1.0975609756097562,-0.426829268292683,0.47412109375,0.44287109375,0.798828125,16.2,29.4,48.9
-2.6219512195121952,0.48780487804878053,0.1829268292682927,0.45263671875,0.4462890625,0.802734375,15.6,28.799999999999997,50.25
0.7317073170731708,0.9756097560975611,0.426829268292683,0.45166015625,0.43701171875,0.7802734375,14.7,28.2,50.1
2.1951219512195124,-0.1829268292682927,0.3658536585365854,0.44384765625,0.44873046875,0.80224609375,17.099999999999998,28.349999999999998,50.25
-1.5853658536585367,1.402439024390244,-1.9512195121951221,0.4609375,0.4521484375,0.79345703125,16.2,30.15,49.65
0.426829268292683,2.7439024390243905,-0.48780487804878053,0.453125,0.439453125,0.7880859375,17.849999999999998,30.299999999999997,48.75
2.7439024390243905,1.707317073170732,0.9146341463414634,0.453125,0.42919921875,0.79541015625,15.45,28.65,48.9
-1.6463414634146343,0.48780487804878053,1.2804878048780488,0.45458984375,0.44677734375,0.79248046875,16.2,29.7,50.1
-1.707317073170732,0.1829268292682927,-1.829268292682927,0.45849609375,0.44482421875,0.7958984375,16.2,30.9,50.1
1.0365853658536586,1.402439024390244,3.048780487804878,0.46240234375,0.44677734375,0.79248046875,16.95,27.75,49.35
-0.426829268292683,2.987804878048781,-2.6219512195121952,0.4501953125,0.43359375,0.80615234375,17.7,28.2,49.65
-0.6707317073170732,0.3658536585365854,0.6707317073170732,0.45361328125,0.4462890625,0.7919921875,16.8,29.549999999999997,50.55
-0.06097560975609757,-0.06097560975609757,1.8902439024390245,0.44970703125,0.4365234375,0.7958984375,16.65,30.15,50.4
-0.7926829268292683,4.207317073170732,-0.24390243902439027,0.46142578125,0.43994140625,0.798828125,16.05,28.799999999999997,49.5
-0.7317073170731708,0.48780487804878053,-0.6097560975609757,0.45703125,0.43896484375,0.80712890625,16.95,27.0,48.9
-1.524390243902439,0.1829268292682927,1.402439024390244,0.45947265625,0.42919921875,0.79833984375,16.349999999999998,29.099999999999998,50.25
1.2804878048780488,1.829268292682927,-0.6097560975609757,0.4443359375,0.447265625,0.796875,16.8,29.849999999999998,49.949999999999996
0.5487804878048781,0.853658536585366,-1.6463414634146343,0.455078125,0.4404296875,0.802734375,17.4,28.2,50.85
0.853658536585366,0.48780487804878053,-1.0365853658536586,0.4580078125,0.45703125,0.7919921875,15.149999999999999,29.4,51.15
2.9268292682926833,1.524390243902439,0.9146341463414634,0.4560546875,0.4326171875,0.79345703125,17.4,29.7,49.35
0.30487804878048785,0.30487804878048785,-0.9146341463414634,0.4580078125,0.43212890625,0.7880859375,17.4,28.65,49.35
-1.3414634146341464,0.1829268292682927,0.9756097560975611,0.45654296875,0.44775390625,0.80078125,15.45,29.7,48.9
-2.1951219512195124,1.0975609756097562,-1.6463414634146343,0.4599609375,0.43896484375,0.79052734375,14.7,28.95,49.35
-1.7682926829268295,1.5853658536585367,-1.2804878048780488,0.451171875,0.43017578125,0.7890625,16.05,30.299999999999997,49.199999999999996
-2.987804878048781,1.0975609756097562,-0.30487804878048785,0.4619140625,0.43798828125,0.794921875,17.55,29.849999999999998,49.949999999999996
2.5,1.7682926829268295,-2.378048780487805,0.45263671875,0.4521484375,0.79443359375,16.05,29.849999999999998,51.3
-0.7926829268292683,-0.12195121951219513,0.9146341463414634,0.4580078125,0.4384765625,0.81298828125,16.349999999999998,28.349999999999998,48.75
0.426829268292683,-0.12195121951219513,-2.1951219512195124,0.4560546875,0.4443359375,0.79345703125,15.899999999999999,29.4,48.9
0.48780487804878053,0.3658536585365854,-0.7317073170731708,0.453125,0.43505859375,0.77978515625,17.55,30.299999999999997,48.449999999999996
-0.06097560975609757,1.829268292682927,-1.7682926829268295,0.4580078125,0.4482421875,0.796875,15.899999999999999,28.95,50.85
1.0975609756097562,0.12195121951219513,-2.378048780487805,0.462890625,0.447265625,0.78857421875,17.4,28.65,49.65
-0.48780487804878053,-0.12195121951219513,-0.5487804878048781,0.462890625,0.44775390625,0.79638671875,17.4,28.95,48.9
-0.30487804878048785,3.1097560975609757,-1.0975609756097562,0.47119140625,0.447265625,0.78759765625,16.8,28.799999999999997,49.5
-1.0365853658536586,1.4634146341463417,-0.7317073170731708,0.453125,0.44140625,0.8037109375,17.849999999999998,28.799999999999997,49.5
-0.7317073170731708,-0.24390243902439027,-0.12195121951219513,0.4560546875,0.43701171875,0.79541015625,16.95,29.4,49.35
-0.9756097560975611,1.6463414634146343,0.6707317073170732,0.46142578125,0.4345703125,0.80224609375,17.4,29.4,50.1
-2.682926829268293,2.073170731707317,-1.1585365853658538,0.46044921875,0.43310546875,0.798828125,16.65,29.4,48.9
2.682926829268293,0.9146341463414634,-0.06097560975609757,0.46240234375,0.43505859375,0.796875,16.95,28.95,48.6
0.06097560975609757,0.7317073170731708,-0.12195121951219513,0.46337890625,0.44384765625,0.79443359375,16.95,30.15,48.6
3.414634146341464,0.48780487804878053,0.6097560975609757,0.462890625,0.4521484375,0.80615234375,16.95,29.7,48.9
-0.12195121951219513,-0.7317073170731708,0.7926829268292683,0.45361328125,0.45166015625,0.78271484375,15.299999999999999,28.05,52.05
-0.6707317073170732,0.9146341463414634,-1.6463414634146343,0.4619140625,0.4462890625,0.7958984375,17.099999999999998,28.05,49.949999999999996
-0.30487804878048785,3.414634146341464,-0.7317073170731708,0.4658203125,0.4443359375,0.80419921875,16.95,28.95,49.65
-0.7317073170731708,3.8414634146341466,-2.6219512195121952,0.46435546875,0.44775390625,0.80322265625,16.65,30.45,50.1
-2.073170731707317,0.7317073170731708,0.426829268292683,0.4521484375,0.4462890625,0.7958984375,17.55,29.099999999999998,49.949999999999996
-0.06097560975609757,2.378048780487805,-0.3658536585365854,0.4638671875,0.439453125,0.791015625,15.45,28.95,50.1
1.3414634146341464,1.3414634146341464,0.30487804878048785,0.45703125,0.44677734375,0.7890625,17.099999999999998,29.849999999999998,50.55
-0.426829268292683,0.6097560975609757,-0.48780487804878053,0.45361328125,0.42431640625,0.79638671875,14.85,29.099999999999998,48.75
1.707317073170732,2.1951219512195124,-1.2804878048780488,0.44873046875,0.4521484375,0.79345703125,16.349999999999998,26.849999999999998,51.0
-2.7439024390243905,0.3658536585365854,1.5853658536585367,0.44970703125,0.45556640625,0.8017578125,15.899999999999999,29.4,48.9
-2.7439024390243905,0.853658536585366,-0.06097560975609757,0.447265625,0.45361328125,0.7890625,16.65,28.65,50.1
0.30487804878048785,0.7317073170731708,0.6707317073170732,0.46435546875,0.42919921875,0.806640625,16.8,28.799999999999997,49.199999999999996
-2.073170731707317,2.439024390243903,-1.829268292682927,0.45654296875,0.4384765625,0.7998046875,15.299999999999999,29.549999999999997,48.75
-0.426829268292683,0.30487804878048785,-1.2804878048780488,0.4677734375,0.44140625,0.802734375,16.05,29.099999999999998,49.199999999999996
-2.0121951219512195,0.3658536585365854,-0.12195121951219513,0.458984375,0.43798828125,0.79248046875,18.599999999999998,30.75,49.199999999999996
1.0365853658536586,0.6707317073170732,-1.1585365853658538,0.447265625,0.447265625,0.7919921875,15.6,29.099999999999998,49.199999999999996
0.12195121951219513,1.3414634146341464,-0.853658536585366,0.4462890625,0.4482421875,0.7919921875,16.95,28.65,50.4
2.6219512195121952,0.7926829268292683,1.3414634146341464,0.4619140625,0.45751953125,0.806640625,16.65,28.65,49.35
-1.8902439024390245,2.804878048780488,-1.707317073170732,0.47216796875,0.43798828125,0.8037109375,16.349999999999998,29.099999999999998,50.25
0.7317073170731708,1.2804878048780488,2.5,0.46044921875,0.4501953125,0.79638671875,16.95,27.75,50.1
-1.5853658536585367,-0.06097560975609757,-0.7926829268292683,0.44873046875,0.447265625,0.794921875,15.6,28.799999999999997,50.55
-1.0365853658536586,-0.3658536585365854,-1.2195121951219514,0.4619140625,0.44775390625,0.791015625,16.95,29.4,50.1
0.30487804878048785,0.7926829268292683,-2.5,0.46337890625,0.45166015625,0.79345703125,16.8,28.799999999999997,49.5
-1.0975609756097562,2.0121951219512195,3.414634146341464,0.4580078125,0.4423828125,0.80029296875,16.349999999999998,29.099999999999998,50.55
1.9512195121951221,-0.06097560975609757,1.0975609756097562,0.45654296875,0.44189453125,0.79150390625,16.95,28.65,48.6
0.24390243902439027,0.06097560975609757,-0.426829268292683,0.4580078125,0.4453125,0.80517578125,15.149999999999999,28.65,48.9
0.0,-0.06097560975609757,-1.402439024390244,0.45703125,0.4296875,0.7978515625,16.65,28.65,49.65
-0.6097560975609757,0.6097560975609757,1.829268292682927,0.466796875,0.4365234375,0.78662109375,16.2,29.7,49.35
0.48780487804878053,0.5487804878048781,1.7682926829268295,0.462890625,0.443359375,0.7939453125,17.099999999999998,29.849999999999998,48.75
-1.4634146341463417,1.9512195121951221,2.073170731707317,0.4580078125,0.44091796875,0.8115234375,18.0,29.7,49.65
-1.7682926829268295,-3.353658536585366,-0.7926829268292683,0.4619140625,0.43701171875,0.79638671875,17.55,27.3,49.199999999999996
1.1585365853658538,2.9268292682926833,-2.3170731707317076,0.46484375,0.4462890625,0.7998046875,17.099999999999998,29.099999999999998,48.75
-2.378048780487805,-0.1829268292682927,1.829268292682927,0.462890625,0.44970703125,0.78515625,14.7,27.75,50.1
0.0,2.0121951219512195,0.12195121951219513,0.43994140625,0.4443359375,0.791015625,16.349999999999998,28.349999999999998,49.5
1.9512195121951221,1.524390243902439,2.5609756097560976,0.46044921875,0.4306640625,0.796875,17.55,29.099999999999998,48.0
-1.9512195121951221,0.30487804878048785,-2.7439024390243905,0.4521484375,0.4384765625,0.7919921875,16.05,29.549999999999997,49.949999999999996
2.6219512195121952,-0.853658536585366,-0.06097560975609757,0.44873046875,0.44677734375,0.78271484375,17.4,28.65,48.9
-0.1829268292682927,0.48780487804878053,0.30487804878048785,0.43896484375,0.44091796875,0.79833984375,17.099999999999998,29.549999999999997,50.25
1.2195121951219514,3.1707317073170733,-4.146341463414634,0.46337890625,0.45068359375,0.79931640625,17.849999999999998,28.799999999999997,49.949999999999996
-1.707317073170732,1.3414634146341464,1.1585365853658538,0.451171875,0.4296875,0.79931640625,17.4,28.65,50.1
-0.1829268292682927,1.2804878048780488,-1.1585365853658538,0.462890625,0.451171875,0.7958984375,15.6,29.099999999999998,49.5
0.12195121951219513,2.5609756097560976,-2.0121951219512195,0.46142578125,0.4365234375,0.78759765625,16.65,28.65,50.4
3.9024390243902443,0.6707317073170732,-0.24390243902439027,0.4619140625,0.4326171875,0.80029296875,16.349999999999998,28.349999999999998,49.199999999999996
-0.24390243902439027,-0.48780487804878053,2.5609756097560976,0.455078125,0.44482421875,0.81005859375,16.95,29.4,49.65
-1.0975609756097562,2.378048780487805,0.9756097560975611,0.4560546875,0.44384765625,0.7978515625,16.05,28.349999999999998,49.949999999999996
1.524390243902439,0.1829268292682927,-3.4756097560975614,0.46826171875,0.44921875,0.79541015625,14.549999999999999,28.05,49.199999999999996
-2.682926829268293,-0.6707317073170732,0.24390243902439027,0.4521484375,0.43505859375,0.78955078125,16.8,30.299999999999997,49.5
2.3170731707317076,2.073170731707317,1.402439024390244,0.453125,0.44580078125,0.78857421875,15.899999999999999,29.4,50.1
1.7682926829268295,-0.48780487804878053,2.5,0.45068359375,0.439453125,0.79541015625,16.95,28.95,50.1
-0.9146341463414634,0.12195121951219513,0.30487804878048785,0.4482421875,0.4384765625,0.791015625,16.8,29.099999999999998,49.199999999999996
-1.5853658536585367,1.2195121951219514,-1.1585365853658538,0.46142578125,0.42919921875,0.80224609375,17.099999999999998,29.549999999999997,49.199999999999996
0.6707317073170732,1.8902439024390245,-2.378048780487805,0.45947265625,0.447265625,0.80419921875,16.2,30.45,49.65
-0.24390243902439027,1.2195121951219514,0.06097560975609757,0.45947265625,0.4326171875,0.79150390625,15.149999999999999,28.95,50.1
-1.524390243902439,2.5,-0.426829268292683,0.451171875,0.43798828125,0.79931640625,17.099999999999998,28.799999999999997,49.949999999999996
1.707317073170732,0.6707317073170732,-0.06097560975609757,0.45947265625,0.44482421875,0.7998046875,17.55,30.75,50.25
-1.4634146341463417,0.0,0.6097560975609757,0.45068359375,0.451171875,0.7919921875,17.4,27.45,49.35
0.48780487804878053,1.4634146341463417,-0.3658536585365854,0.45556640625,0.439453125,0.79638671875,17.4,29.4,50.4
-3.1707317073170733,0.3658536585365854,1.402439024390244,0.466796875,0.4453125,0.79736328125,16.349999999999998,28.05,50.25
-0.426829268292683,0.6707317073170732,0.0,0.45458984375,0.4404296875,0.78662109375,17.7,28.95,52.199999999999996
-1.402439024390244,-0.1829268292682927,0.3658536585365854,0.46142578125,0.4365234375,0.8115234375,17.849999999999998,28.349999999999998,49.5
-0.9146341463414634,2.6219512195121952,0.6097560975609757,0.4541015625,0.44091796875,0.79638671875,16.65,27.75,50.4
1.0975609756097562,0.9146341463414634,-1.5853658536585367,0.45849609375,0.44140625,0.79833984375,16.65,28.65,49.35
0.12195121951219513,1.707317073170732,-3.8414634146341466,0.462890625,0.4306640625,0.80419921875,16.65,27.75,49.35
1.0365853658536586,-1.3414634146341464,-0.3658536585365854,0.45947265625,0.4423828125,0.79541015625,16.95,28.65,48.6
-0.06097560975609757,-0.9146341463414634,-0.24390243902439027,0.46142578125,0.4365234375,0.78662109375,17.099999999999998,30.299999999999997,48.75
0.0,2.8658536585365857,-0.24390243902439027,0.46337890625,0.453125,0.7998046875,16.8,28.05,50.25
0.5487804878048781,1.524390243902439,1.6463414634146343,0.4482421875,0.43896484375,0.798828125,16.349999999999998,29.549999999999997,50.55
-1.3414634146341464,1.2804878048780488,-0.6097560975609757,0.4462890625,0.44287109375,0.80126953125,16.95,28.2,49.65
2.682926829268293,1.9512195121951221,-1.6463414634146343,0.45556640625,0.439453125,0.806640625,16.349999999999998,28.799999999999997,50.25
0.30487804878048785,1.3414634146341464,0.6707317073170732,0.4482421875,0.4326171875,0.7919921875,15.899999999999999,28.2,50.85
2.0121951219512195,2.3170731707317076,-2.8658536585365857,0.4599609375,0.4521484375,0.7939453125,17.099999999999998,28.349999999999998,49.199999999999996
0.9146341463414634,-1.4634146341463417,1.402439024390244,0.45654296875,0.4541015625,0.8046875,17.099999999999998,28.799999999999997,49.949999999999996
-1.0975609756097562,0.9756097560975611,-0.24390243902439027,0.45556640625,0.4453125,0.79345703125,15.899999999999999,28.95,49.65
-0.7926829268292683,1.3414634146341464,-2.439024390243903,0.43505859375,0.4365234375,0.7978515625,16.05,28.799999999999997,49.5
-2.987804878048781,2.25609756097561,1.3414634146341464,0.4580078125,0.42626953125,0.794921875,16.05,29.549999999999997,49.5
-1.402439024390244,2.439024390243903,-2.6219512195121952,0.4521484375,0.4423828125,0.79931640625,16.2,28.65,51.9
0.6097560975609757,0.7926829268292683,-1.5853658536585367,0.45556640625,0.4501953125,0.80908203125,17.849999999999998,29.549999999999997,49.5
2.9268292682926833,2.3170731707317076,-1.524390243902439,0.46533203125,0.443359375,0.791015625,16.2,28.2,50.1
-1.2195121951219514,1.402439024390244,-0.30487804878048785,0.44580078125,0.44189453125,0.79541015625,17.099999999999998,29.549999999999997,49.5
-0.30487804878048785,1.524390243902439,-0.24390243902439027,0.4482421875,0.4482421875,0.78369140625,16.349999999999998,28.349999999999998,49.949999999999996
2.073170731707317,0.6707317073170732,0.48780487804878053,0.4501953125,0.44287109375,0.79443359375,15.45,29.4,49.35
-2.1951219512195124,2.7439024390243905,-0.426829268292683,0.46142578125,0.45654296875,0.79833984375,15.149999999999999,28.65,49.65
0.12195121951219513,-0.12195121951219513,-2.0121951219512195,0.447265625,0.43212890625,0.798828125,16.05,28.799999999999997,48.75
-1.8902439024390245,0.3658536585365854,0.9146341463414634,0.4521484375,0.439453125,0.80419921875,16.95,28.95,50.4
-1.1585365853658538,2.987804878048781,1.0975609756097562,0.4521484375,0.439453125,0.798828125,16.349999999999998,28.799999999999997,49.949999999999996
1.1585365853658538,1.8902439024390245,-1.2195121951219514,0.453125,0.43359375,0.80224609375,16.8,28.05,50.25
-0.48780487804878053,-0.9756097560975611,-1.1585365853658538,0.45458984375,0.44970703125,0.79345703125,16.349999999999998,28.349999999999998,50.25
1.1585365853658538,1.9512195121951221,-0.3658536585365854,0.4677734375,0.44287109375,0.80517578125,17.55,29.849999999999998,50.25
3.048780487804878,0.0,0.30487804878048785,0.4482421875,0.443359375,0.80126953125,15.45,28.95,48.9
1.0365853658536586,-0.06097560975609757,-0.3658536585365854,0.45849609375,0.4453125,0.798828125,16.349999999999998,29.099999999999998,49.199999999999996
-1.2804878048780488,1.5853658536585367,1.0975609756097562,0.44873046875,0.43798828125,0.78759765625,16.2,28.95,49.65
1.829268292682927,1.2804878048780488,-0.9756097560975611,0.4521484375,0.44677734375,0.79345703125,16.05,28.799999999999997,49.199999999999996
-0.1829268292682927,0.6707317073170732,-0.7317073170731708,0.46533203125,0.46044921875,0.8017578125,15.899999999999999,28.65,50.4
0.9146341463414634,1.9512195121951221,-0.7926829268292683,0.44970703125,0.45263671875,0.79736328125,16.95,30.15,49.199999999999996
-0.853658536585366,0.0,-2.7439024390243905,0.45458984375,0.4423828125,0.80126953125,16.8,29.099999999999998,50.25
-1.6463414634146343,-0.1829268292682927,-0.6707317073170732,0.46337890625,0.44677734375,0.7890625,16.349999999999998,29.849999999999998,49.199999999999996
0.48780487804878053,0.426829268292683,0.0,0.451171875,0.443359375,0.80078125,16.8,29.549999999999997,49.199999999999996
-0.9146341463414634,-1.9512195121951221,-0.7317073170731708,0.447265625,0.43359375,0.79296875,16.349999999999998,28.349999999999998,49.199999999999996
3.536585365853659,-0.12195121951219513,-0.9756097560975611,0.45751953125,0.4404296875,0.79931640625,16.8,28.799999999999997,50.25
0.426829268292683,0.426829268292683,-0.9756097560975611,0.4521484375,0.4365234375,0.78369140625,16.05,28.349999999999998,49.949999999999996
1.2195121951219514,0.30487804878048785,1.1585365853658538,0.46044921875,0.45068359375,0.7958984375,16.349999999999998,27.3,48.75
1.0365853658536586,3.5975609756097566,-0.24390243902439027,0.455078125,0.431640625,0.8134765625,16.349999999999998,28.349999999999998,49.199999999999996
1.0365853658536586,0.5487804878048781,-0.6097560975609757,0.45556640625,0.44091796875,0.79296875,16.95,29.4,50.1
-0.12195121951219513,2.1951219512195124,0.7926829268292683,0.46826171875,0.4462890625,0.8017578125,15.6,28.05,49.199999999999996
-0.24390243902439027,0.9146341463414634,0.7926829268292683,0.4599609375,0.4375,0.79296875,16.2,27.75,49.65
1.2195121951219514,0.3658536585365854,-1.2195121951219514,0.46240234375,0.44970703125,0.80810546875,16.95,28.65,49.65
-0.7926829268292683,2.0121951219512195,-0.30487804878048785,0.4638671875,0.43603515625,0.79638671875,16.65,29.4,48.9
1.829268292682927,-0.7926829268292683,-0.7317073170731708,0.44921875,0.44189453125,0.810546875,15.6,28.05,49.199999999999996
-0.6097560975609757,0.5487804878048781,-0.6097560975609757,0.451171875,0.4482421875,0.79638671875,17.099999999999998,29.099999999999998,49.949999999999996
-1.8902439024390245,1.8902439024390245,-1.3414634146341464,0.45654296875,0.451171875,0.80078125,15.6,29.549999999999997,49.949999999999996
0.1829268292682927,1.0975609756097562,1.5853658536585367,0.4609375,0.44482421875,0.79931640625,16.349999999999998,28.799999999999997,49.949999999999996
0.3658536585365854,-0.12195121951219513,-0.48780487804878053,0.45556640625,0.44970703125,0.7958984375,17.4,29.4,50.4
-1.0975609756097562,0.0,1.829268292682927,0.45556640625,0.45166015625,0.794921875,18.0,28.65,50.85
-3.231707317073171,0.7926829268292683,-2.0121951219512195,0.45751953125,0.43310546875,0.796875,15.6,29.099999999999998,50.55
0.1829268292682927,1.0975609756097562,0.24390243902439027,0.46630859375,0.44775390625,0.7958984375,15.6,28.349999999999998,50.55
-2.1951219512195124,1.707317073170732,1.4634146341463417,0.44140625,0.44091796875,0.80419921875,17.4,28.2,48.9
-0.12195121951219513,2.804878048780488,-1.2195121951219514,0.47119140625,0.43896484375,0.810546875,16.2,28.2,49.65
1.524390243902439,1.0975609756097562,1.7682926829268295,0.4560546875,0.431640625,0.79150390625,15.149999999999999,28.2,51.15
2.5,1.524390243902439,-0.12195121951219513,0.45166015625,0.4541015625,0.796875,16.2,29.7,50.4
0.24390243902439027,2.439024390243903,0.1829268292682927,0.43798828125,0.4521484375,0.791015625,16.8,28.349999999999998,49.199999999999996
0.7926829268292683,0.7317073170731708,-1.0365853658536586,0.46142578125,0.43212890625,0.79345703125,17.4,28.2,49.35
1.2195121951219514,0.3658536585365854,1.3414634146341464,0.45068359375,0.4423828125,0.79052734375,16.95,28.2,50.4
-1.3414634146341464,1.4634146341463417,-1.5853658536585367,0.44873046875,0.43310546875,0.79736328125,17.55,28.799999999999997,49.5
-1.8902439024390245,3.536585365853659,-1.524390243902439,0.45166015625,0.43994140625,0.802734375,15.149999999999999,29.7,50.85
-1.6463414634146343,0.3658536585365854,-0.7317073170731708,0.46240234375,0.443359375,0.7919921875,15.299999999999999,29.099999999999998,49.5
1.2195121951219514,4.2682926829268295,-0.30487804878048785,0.44970703125,0.4521484375,0.796875,17.099999999999998,28.349999999999998,49.949999999999996
0.12195121951219513,0.9146341463414634,0.6097560975609757,0.46630859375,0.447265625,0.7998046875,17.55,28.349999999999998,51.0
0.48780487804878053,-1.8902439024390245,0.0,0.47607421875,0.44140625,0.7890625,17.099999999999998,29.849999999999998,49.5
1.0975609756097562,-0.6707317073170732,1.2804878048780488,0.47802734375,0.44384765625,0.7958984375,15.899999999999999,28.95,49.65
-0.7317073170731708,1.0975609756097562,0.30487804878048785,0.46142578125,0.44482421875,0.80712890625,16.2,28.65,49.65
2.073170731707317,0.853658536585366,-1.7682926829268295,0.45263671875,0.44482421875,0.80615234375,16.349999999999998,28.05,49.199999999999996
-1.0975609756097562,0.6097560975609757,0.853658536585366,0.4462890625,0.44873046875,0.8046875,18.0,28.95,50.1
2.5,1.2195121951219514,0.48780487804878053,0.45751953125,0.43701171875,0.80078125,16.349999999999998,29.099999999999998,49.199999999999996
-1.3414634146341464,1.6463414634146343,0.3658536585365854,0.4482421875,0.43603515625,0.802734375,16.349999999999998,28.799999999999997,49.5
-0.853658536585366,-1.4634146341463417,1.1585365853658538,0.44921875,0.4384765625,0.80126953125,16.95,28.95,49.65
-1.707317073170732,2.0121951219512195,0.7317073170731708,0.4638671875,0.439453125,0.8056640625,16.05,29.099999999999998,48.75
1.6463414634146343,2.987804878048781,0.24390243902439027,0.44921875,0.447265625,0.796875,17.4,28.65,49.35
-0.9756097560975611,0.1829268292682927,1.707317073170732,0.45361328125,0.4326171875,0.79931640625,16.8,28.799999999999997,49.5
1.1585365853658538,1.2804878048780488,-0.1829268292682927,0.4482421875,0.439453125,0.7861328125,15.899999999999999,28.65,50.1
2.073170731707317,-1.829268292682927,0.853658536585366,0.48193359375,0.45166015625,0.8046875,17.4,28.65,48.6
-2.7439024390243905,0.7317073170731708,-0.853658536585366,0.4599609375,0.45166015625,0.79833984375,15.45,29.7,49.65
0.7317073170731708,1.2804878048780488,-3.963414634146342,0.45654296875,0.443359375,0.80419921875,17.55,30.75,49.5
-1.0975609756097562,3.353658536585366,-0.7926829268292683,0.45654296875,0.44189453125,0.7919921875,17.099999999999998,28.05,48.449999999999996
0.1829268292682927,3.231707317073171,1.0365853658536586,0.44921875,0.44580078125,0.79345703125,16.05,30.299999999999997,51.3
-1.1585365853658538,0.9146341463414634,-1.2195121951219514,0.46875,0.431640625,0.79296875,17.849999999999998,29.849999999999998,49.949999999999996
-0.9146341463414634,0.30487804878048785,0.7926829268292683,0.4580078125,0.44189453125,0.78125,16.349999999999998,28.799999999999997,49.5
1.3414634146341464,-1.4634146341463417,-0.30487804878048785,0.4599609375,0.439453125,0.79638671875,16.65,28.2,48.6
1.8902439024390245,-1.829268292682927,2.804878048780488,0.46240234375,0.43603515625,0.7958984375,16.95,28.65,50.1
2.439024390243903,-0.6097560975609757,0.5487804878048781,0.46044921875,0.44677734375,0.78564453125,17.55,28.799999999999997,49.199999999999996
-1.2195121951219514,1.4634146341463417,0.853658536585366,0.4521484375,0.43408203125,0.791015625,16.05,28.349999999999998,51.0
0.30487804878048785,2.1951219512195124,-0.1829268292682927,0.46337890625,0.4384765625,0.79833984375,17.099999999999998,29.549999999999997,49.5
-2.1951219512195124,2.7439024390243905,-0.6707317073170732,0.44970703125,0.4453125,0.79443359375,17.55,30.299999999999997,48.75
-1.0975609756097562,0.12195121951219513,-1.6463414634146343,0.45361328125,0.4580078125,0.796875,15.45,28.95,50.1
0.30487804878048785,2.1951219512195124,3.048780487804878,0.45751953125,0.4375,0.810546875,16.8,28.05,49.5
-2.378048780487805,2.1951219512195124,-1.2804878048780488,0.455078125,0.447265625,0.78564453125,16.95,27.45,51.449999999999996
2.682926829268293,0.12195121951219513,0.3658536585365854,0.46337890625,0.45263671875,0.78173828125,17.7,28.2,50.1
-0.7926829268292683,1.9512195121951221,-2.1341463414634148,0.46630859375,0.43896484375,0.80859375,16.2,28.65,50.4
-0.12195121951219513,1.3414634146341464,-1.707317073170732,0.4580078125,0.43603515625,0.78271484375,16.2,30.15,49.65
0.1829268292682927,2.25609756097561,1.402439024390244,0.4599609375,0.435546875,0.80517578125,16.95,28.95,49.35
0.9146341463414634,2.8658536585365857,0.5487804878048781,0.45751953125,0.43994140625,0.8046875,17.7,28.65,51.15
-2.1341463414634148,0.3658536585365854,1.402439024390244,0.44091796875,0.447265625,0.79345703125,17.099999999999998,27.599999999999998,51.3
-1.524390243902439,2.8658536585365857,-0.6097560975609757,0.4462890625,0.4453125,0.7890625,16.65,28.95,49.35
1.6463414634146343,0.1829268292682927,2.0121951219512195,0.45703125,0.4541015625,0.7958984375,16.2,30.15,49.65
-1.0365853658536586,0.6707317073170732,-2.9268292682926833,0.4599609375,0.45166015625,0.79931640625,15.899999999999999,29.4,48.6
1.402439024390244,0.06097560975609757,-0.1829268292682927,0.45947265625,0.4482421875,0.7958984375,17.099999999999998,28.349999999999998,50.55
-1.7682926829268295,1.0365853658536586,-0.24390243902439027,0.44580078125,0.4384765625,0.8056640625,16.2,28.2,48.9
0.24390243902439027,0.30487804878048785,-1.7682926829268295,0.46337890625,0.44482421875,0.79541015625,16.8,29.849999999999998,50.55
-1.524390243902439,1.0975609756097562,-0.7317073170731708,0.4755859375,0.4375,0.80517578125,16.349999999999998,28.799999999999997,49.199999999999996
0.30487804878048785,3.048780487804878,-1.6463414634146343,0.4609375,0.44287109375,0.79248046875,16.65,27.0,49.35
1.5853658536585367,-2.0121951219512195,0.48780487804878053,0.47021484375,0.45703125,0.80810546875,15.45,29.7,49.65
0.48780487804878053,-2.1341463414634148,1.0975609756097562,0.4521484375,0.43408203125,0.791015625,16.95,29.4,50.85
-0.12195121951219513,0.48780487804878053,0.426829268292683,0.45263671875,0.43603515625,0.783203125,15.899999999999999,27.45,49.35
-0.48780487804878053,0.3658536585365854,-1.5853658536585367,0.462890625,0.43994140625,0.80517578125,15.6,28.349999999999998,48.75
3.658536585365854,1.8902439024390245,-0.1829268292682927,0.45947265625,0.455078125,0.80322265625,16.349999999999998,27.3,48.75
-2.0121951219512195,1.402439024390244,-0.9146341463414634,0.44384765625,0.45263671875,0.79931640625,16.95,28.65,49.65
1.707317073170732,2.25609756097561,0.853658536585366,0.4580078125,0.44091796875,0.78564453125,15.6,28.05,49.949999999999996
-0.6707317073170732,0.48780487804878053,-1.2195121951219514,0.46435546875,0.43994140625,0.79248046875,17.849999999999998,29.549999999999997,49.199999999999996
-0.9756097560975611,1.4634146341463417,0.9756097560975611,0.44775390625,0.4306640625,0.787109375,16.05,29.099999999999998,49.949999999999996
-0.5487804878048781,1.7682926829268295,-0.9146341463414634,0.4658203125,0.4404296875,0.81005859375,16.349999999999998,28.799999999999997,49.5
-2.1951219512195124,0.48780487804878053,-0.30487804878048785,0.4609375,0.43115234375,0.80712890625,15.899999999999999,27.75,50.1
0.6707317073170732,0.48780487804878053,-1.8902439024390245,0.46044921875,0.443359375,0.796875,15.6,30.75,49.5
1.7682926829268295,1.9512195121951221,0.24390243902439027,0.4423828125,0.43603515625,0.7861328125,16.65,29.4,50.1
1.6463414634146343,1.6463414634146343,0.1829268292682927,0.47119140625,0.4404296875,0.791015625,17.4,29.4,50.1
-2.5,3.414634146341464,0.48780487804878053,0.4716796875,0.44921875,0.8056640625,16.349999999999998,29.549999999999997,50.25
2.439024390243903,0.7926829268292683,-2.1341463414634148,0.458984375,0.44677734375,0.78955078125,18.3,28.799999999999997,50.25
-0.6707317073170732,-1.402439024390244,-1.5853658536585367,0.455078125,0.43505859375,0.80078125,16.05,28.799999999999997,49.199999999999996
0.426829268292683,0.6097560975609757,0.853658536585366,0.47021484375,0.42822265625,0.78466796875,16.95,29.4,48.9
-0.24390243902439027,1.6463414634146343,-0.9146341463414634,0.44873046875,0.44482421875,0.78759765625,15.6,29.549999999999997,48.0
-2.804878048780488,2.987804878048781,1.2195121951219514,0.46435546875,0.44580078125,0.80419921875,15.149999999999999,28.95,49.35
0.9146341463414634,3.1097560975609757,-0.6097560975609757,0.451171875,0.4482421875,0.7890625,17.55,29.849999999999998,49.949999999999996
-0.1829268292682927,1.0975609756097562,1.7682926829268295,0.45458984375,0.43701171875,0.79248046875,17.4,28.95,49.35
1.4634146341463417,0.48780487804878053,-0.12195121951219513,0.46337890625,0.44091796875,0.80224609375,17.4,29.7,50.4
0.5487804878048781,0.1829268292682927,0.1829268292682927,0.4677734375,0.44873046875,0.7880859375,17.4,28.95,50.1
1.7682926829268295,-0.12195121951219513,1.9512195121951221,0.458984375,0.44677734375,0.79443359375,16.8,31.049999999999997,50.25
0.30487804878048785,2.3170731707317076,-2.1341463414634148,0.4609375,0.45166015625,0.80078125,16.95,28.95,48.9
1.7682926829268295,1.524390243902439,1.2804878048780488,0.44140625,0.453125,0.783203125,15.299999999999999,28.349999999999998,49.949999999999996
0.06097560975609757,2.073170731707317,-1.2195121951219514,0.46142578125,0.4541015625,0.8017578125,17.4,29.7,50.1
-2.804878048780488,1.7682926829268295,1.1585365853658538,0.44775390625,0.43896484375,0.78955078125,16.8,28.349999999999998,49.949999999999996
-0.5487804878048781,2.073170731707317,-0.426829268292683,0.45556640625,0.44775390625,0.79931640625,16.2,29.7,50.1
-2.073170731707317,1.707317073170732,-0.5487804878048781,0.455078125,0.44482421875,0.80126953125,16.349999999999998,28.05,49.949999999999996
2.439024390243903,3.780487804878049,-0.12195121951219513,0.44873046875,0.44384765625,0.80078125,17.7,30.45,50.85
1.7682926829268295,1.402439024390244,0.24390243902439027,0.45703125,0.4521484375,0.8017578125,17.7,28.65,48.6
-0.6097560975609757,1.6463414634146343,-0.426829268292683,0.46533203125,0.45166015625,0.78955078125,16.349999999999998,28.349999999999998,48.75
1.707317073170732,-0.6097560975609757,-1.8902439024390245,0.455078125,0.453125,0.80078125,14.85,29.099999999999998,50.25
-0.853658536585366,0.7317073170731708,2.1341463414634148,0.46240234375,0.46240234375,0.798828125,18.45,29.4,48.9
-0.6097560975609757,2.5609756097560976,-1.5853658536585367,0.45556640625,0.4384765625,0.7958984375,16.349999999999998,28.349999999999998,50.55
-2.439024390243903,2.987804878048781,3.048780487804878,0.44921875,0.44384765625,0.79638671875,17.4,28.95,51.15
0.426829268292683,2.682926829268293,-1.7682926829268295,0.46240234375,0.42919921875,0.80859375,15.6,28.349999999999998,49.199999999999996
-2.0121951219512195,-0.06097560975609757,-3.048780487804878,0.45849609375,0.42822265625,0.80126953125,16.65,28.65,50.4
1.4634146341463417,0.1829268292682927,-1.524390243902439,0.45361328125,0.43115234375,0.78173828125,16.349999999999998,28.799999999999997,48.75
2.073170731707317,0.6707317073170732,-2.987804878048781,0.46484375,0.4443359375,0.8037109375,15.6,29.099999999999998,48.0
-2.7439024390243905,3.414634146341464,-0.9146341463414634,0.470703125,0.45068359375,0.7880859375,17.55,29.549999999999997,49.949999999999996
1.2195121951219514,0.6097560975609757,-0.9756097560975611,0.4560546875,0.45849609375,0.77734375,16.2,28.2,49.35
-0.9146341463414634,2.3170731707317076,0.5487804878048781,0.453125,0.4453125,0.80029296875,17.4,29.7,50.85
-0.5487804878048781,1.7682926829268295,0.30487804878048785,0.46435546875,0.45068359375,0.787109375,16.8,28.349999999999998,50.25
0.6097560975609757,-0.30487804878048785,-1.707317073170732,0.45458984375,0.44091796875,0.7958984375,15.149999999999999,28.2,50.1
-2.8658536585365857,-0.24390243902439027,0.5487804878048781,0.46728515625,0.4580078125,0.7900390625,16.8,27.599999999999998,49.5
0.24390243902439027,-0.12195121951219513,0.9756097560975611,0.4541015625,0.43505859375,0.79736328125,16.349999999999998,28.799999999999997,50.25
1.402439024390244,-2.1951219512195124,-0.6707317073170732,0.46533203125,0.439453125,0.796875,16.2,29.7,50.4
2.5609756097560976,1.3414634146341464,-1.829268292682927,0.45166015625,0.44580078125,0.79833984375,16.2,29.4,51.9
0.3658536585365854,5.426829268292684,-0.12195121951219513,0.466796875,0.435546875,0.79541015625,16.2,28.2,48.9
0.9146341463414634,2.804878048780488,0.0,0.46728515625,0.45556640625,0.79248046875,16.8,27.599999999999998,48.449999999999996
-0.6097560975609757,0.7317073170731708,-1.1585365853658538,0.46142578125,0.42626953125,0.79638671875,15.899999999999999,28.95,48.9
-2.1341463414634148,-0.1829268292682927,-1.9512195121951221,0.451171875,0.4423828125,0.794921875,16.65,27.75,49.35
0.0,-0.6097560975609757,-0.7317073170731708,0.447265625,0.44384765625,0.796875,16.65,27.45,50.85
-1.8902439024390245,1.8902439024390245,-1.4634146341463417,0.45263671875,0.44873046875,0.8017578125,16.95,28.65,49.65
1.2804878048780488,3.231707317073171,0.12195121951219513,0.453125,0.43896484375,0.79150390625,16.2,29.7,49.35
0.12195121951219513,1.6463414634146343,0.6097560975609757,0.44970703125,0.4404296875,0.8076171875,16.349999999999998,29.549999999999997,49.199999999999996
0.3658536585365854,1.9512195121951221,0.7926829268292683,0.45947265625,0.44189453125,0.7978515625,17.7,29.4,50.4
1.402439024390244,1.6463414634146343,-1.402439024390244,0.455078125,0.46240234375,0.8037109375,17.4,29.4,49.35
1.829268292682927,1.524390243902439,-0.1829268292682927,0.4560546875,0.439453125,0.8017578125,17.099999999999998,29.099999999999998,50.25
-0.6707317073170732,-0.12195121951219513,0.7317073170731708,0.45751953125,0.43896484375,0.79541015625,17.55,28.05,49.949999999999996
1.0365853658536586,1.5853658536585367,1.524390243902439,0.4638671875,0.4482421875,0.79345703125,17.55,29.099999999999998,49.5
-0.6707317073170732,0.48780487804878053,-0.5487804878048781,0.4619140625,0.43896484375,0.79833984375,16.8,28.799999999999997,49.199999999999996
-4.817073170731708,0.9756097560975611,0.06097560975609757,0.4619140625,0.453125,0.80517578125,16.2,29.099999999999998,49.949999999999996
0.48780487804878053,1.7682926829268295,0.3658536585365854,0.4560546875,0.43994140625,0.80029296875,16.349999999999998,27.599999999999998,50.25
-3.2926829268292686,0.48780487804878053,0.48780487804878053,0.4541015625,0.42578125,0.79736328125,16.65,28.95,49.35
-0.6707317073170732,-0.06097560975609757,0.30487804878048785,0.46044921875,0.44384765625,0.7958984375,16.2,28.95,50.1
-0.30487804878048785,-0.9756097560975611,-2.804878048780488,0.46875,0.4501953125,0.802734375,16.95,28.65,49.65
0.12195121951219513,1.6463414634146343,0.06097560975609757,0.45556640625,0.4453125,0.80029296875,15.899999999999999,28.65,50.1
1.0365853658536586,-0.3658536585365854,-2.682926829268293,0.45751953125,0.4580078125,0.7958984375,15.899999999999999,28.95,48.9
0.426829268292683,1.829268292682927,1.0975609756097562,0.462890625,0.4541015625,0.7900390625,15.299999999999999,28.799999999999997,48.75
1.402439024390244,0.6707317073170732,-0.48780487804878053,0.4560546875,0.44482421875,0.78564453125,16.95,27.75,49.65
-2.1341463414634148,1.707317073170732,-1.2195121951219514,0.466796875,0.44580078125,0.796875,17.7,28.65,48.6
-0.7317073170731708,2.439024390243903,-1.0365853658536586,0.455078125,0.4482421875,0.79443359375,16.349999999999998,29.849999999999998,48.0
-0.9756097560975611,1.5853658536585367,1.0975609756097562,0.4716796875,0.44091796875,0.80615234375,15.299999999999999,30.299999999999997,49.949999999999996
0.12195121951219513,1.2804878048780488,0.6097560975609757,0.46240234375,0.43896484375,0.78564453125,16.8,30.299999999999997,49.949999999999996
1.5853658536585367,1.6463414634146343,-1.5853658536585367,0.45458984375,0.4345703125,0.791015625,16.95,28.65,50.4
-2.1951219512195124,-0.7317073170731708,0.426829268292683,0.45068359375,0.44873046875,0.80517578125,15.149999999999999,27.75,48.6
0.853658536585366,-0.9146341463414634,-1.7682926829268295,0.4599609375,0.4453125,0.794921875,16.2,28.2,49.35
1.2804878048780488,1.1585365853658538,-0.48780487804878053,0.4541015625,0.45361328125,0.7919921875,16.349999999999998,29.099999999999998,48.0
0.3658536585365854,0.9146341463414634,-0.12195121951219513,0.45703125,0.43798828125,0.79736328125,16.05,29.549999999999997,49.199999999999996
-0.12195121951219513,0.7926829268292683,0.48780487804878053,0.45654296875,0.44482421875,0.80126953125,16.8,28.349999999999998,49.5
-2.25609756097561,0.426829268292683,-0.12195121951219513,0.4580078125,0.43408203125,0.7939453125,16.8,28.799999999999997,48.449999999999996
-0.5487804878048781,-0.30487804878048785,0.12195121951219513,0.44873046875,0.44677734375,0.7998046875,16.65,29.7,49.65
-0.30487804878048785,0.853658536585366,0.06097560975609757,0.4580078125,0.43603515625,0.79638671875,16.2,28.2,49.35
-1.2195121951219514,0.7317073170731708,-2.439024390243903,0.455078125,0.43896484375,0.796875,16.2,28.2,51.15
-2.0121951219512195,1.8902439024390245,-2.25609756097561,0.45068359375,0.4443359375,0.80078125,16.8,29.549999999999997,51.0
1.4634146341463417,1.829268292682927,-1.0365853658536586,0.4619140625,0.44921875,0.78564453125,16.65,29.7,48.9
0.9146341463414634,1.4634146341463417,-0.6097560975609757,0.45361328125,0.43896484375,0.80126953125,16.05,29.549999999999997,49.949999999999996
-0.12195121951219513,-0.06097560975609757,-0.7926829268292683,0.44775390625,0.443359375,0.78857421875,16.8,29.099999999999998,49.199999999999996
2.5609756097560976,2.25609756097561,0.853658536585366,0.44287109375,0.4375,0.79833984375,16.8,29.549999999999997,50.25
-2.7439024390243905,1.8902439024390245,0.3658536585365854,0.44873046875,0.43994140625,0.802734375,16.8,29.099999999999998,48.75
-1.0365853658536586,0.7317073170731708,1.6463414634146343,0.45263671875,0.44384765625,0.794921875,16.65,28.95,51.15
-2.073170731707317,1.6463414634146343,1.0365853658536586,0.462890625,0.43994140625,0.798828125,16.2,28.65,50.85
2.3170731707317076,2.682926829268293,2.6219512195121952,0.45263671875,0.43310546875,0.80615234375,17.55,29.099999999999998,51.0
-0.30487804878048785,1.2804878048780488,0.7926829268292683,0.45556640625,0.447265625,0.79638671875,17.099999999999998,28.349999999999998,49.949999999999996
0.30487804878048785,3.048780487804878,-0.853658536585366,0.4619140625,0.45458984375,0.78564453125,15.899999999999999,28.95,50.4
-0.06097560975609757,-0.426829268292683,-3.048780487804878,0.45947265625,0.42822265625,0.7998046875,16.65,28.95,48.6
0.7317073170731708,0.06097560975609757,1.829268292682927,0.45751953125,0.45166015625,0.7900390625,16.65,29.4,49.65
0.48780487804878053,3.353658536585366,-0.5487804878048781,0.4345703125,0.4306640625,0.796875,16.05,29.549999999999997,49.949999999999996
-0.7317073170731708,1.2804878048780488,-0.6707317073170732,0.46630859375,0.43896484375,0.79833984375,16.8,28.05,49.949999999999996
2.25609756097561,1.3414634146341464,-0.6707317073170732,0.45751953125,0.45458984375,0.802734375,15.6,28.799999999999997,49.5
-2.6219512195121952,2.6219512195121952,-1.524390243902439,0.46435546875,0.44140625,0.8056640625,16.95,28.65,48.6
1.2804878048780488,1.5853658536585367,0.426829268292683,0.45458984375,0.45166015625,0.79736328125,16.8,28.349999999999998,49.5
2.987804878048781,2.804878048780488,-1.402439024390244,0.4521484375,0.447265625,0.79931640625,15.45,29.7,50.85
-0.6097560975609757,0.7317073170731708,-1.524390243902439,0.44482421875,0.44775390625,0.810546875,16.2,30.15,50.85
-2.1341463414634148,2.1341463414634148,-0.853658536585366,0.47216796875,0.45263671875,0.79833984375,14.85,28.349999999999998,48.75
-2.7439024390243905,-0.9756097560975611,1.7682926829268295,0.4462890625,0.44482421875,0.79638671875,16.65,28.65,49.35
-0.426829268292683,1.8902439024390245,1.2195121951219514,0.45361328125,0.4345703125,0.78759765625,15.6,28.799999999999997,48.75
-0.853658536585366,-0.24390243902439027,-1.0975609756097562,0.4521484375,0.4443359375,0.80517578125,16.349999999999998,27.599999999999998,48.449999999999996
1.4634146341463417,-0.1829268292682927,1.0365853658536586,0.4677734375,0.44140625,0.78466796875,16.349999999999998,28.799999999999997,48.75
-1.6463414634146343,0.1829268292682927,1.1585365853658538,0.45068359375,0.44482421875,0.79443359375,15.45,28.2,49.65
1.402439024390244,2.6219512195121952,-1.1585365853658538,0.45458984375,0.44580078125,0.79833984375,15.899999999999999,30.15,50.1
0.3658536585365854,2.073170731707317,-0.6097560975609757,0.4462890625,0.443359375,0.80029296875,16.05,27.599999999999998,48.75
-2.1951219512195124,1.3414634146341464,-0.9146341463414634,0.462890625,0.4384765625,0.80126953125,16.95,28.95,50.4
1.2804878048780488,-0.06097560975609757,0.1829268292682927,0.45654296875,0.4404296875,0.79150390625,16.349999999999998,28.349999999999998,50.25
0.0,-0.853658536585366,0.1829268292682927,0.4638671875,0.44287109375,0.78173828125,15.6,27.599999999999998,48.0
0.1829268292682927,2.804878048780488,-1.402439024390244,0.44775390625,0.4462890625,0.80322265625,17.55,26.849999999999998,50.25
-1.6463414634146343,0.9756097560975611,1.402439024390244,0.45849609375,0.439453125,0.802734375,16.8,29.099999999999998,49.949999999999996
2.1341463414634148,1.707317073170732,-0.1829268292682927,0.458984375,0.4423828125,0.7939453125,15.899999999999999,28.95,49.35
0.6097560975609757,1.7682926829268295,-1.5853658536585367,0.45556640625,0.44970703125,0.80859375,16.65,28.65,49.65
1.829268292682927,1.7682926829268295,0.9146341463414634,0.46630859375,0.4560546875,0.78662109375,16.349999999999998,28.799999999999997,48.75
1.9512195121951221,-0.6707317073170732,-0.426829268292683,0.4580078125,0.443359375,0.8095703125,16.349999999999998,28.349999999999998,50.55
0.6707317073170732,1.2804878048780488,0.426829268292683,0.45947265625,0.4482421875,0.7958984375,17.099999999999998,28.05,49.199999999999996
1.9512195121951221,1.707317073170732,1.1585365853658538,0.44384765625,0.447265625,0.79248046875,17.4,30.45,49.35
-2.7439024390243905,1.707317073170732,0.426829268292683,0.44775390625,0.45654296875,0.78857421875,16.95,29.7,49.65
0.0,3.9024390243902443,-1.402439024390244,0.474609375,0.4462890625,0.798828125,17.4,28.2,49.65
-0.9756097560975611,2.3170731707317076,0.30487804878048785,0.4599609375,0.451171875,0.79833984375,17.55,28.799999999999997,49.949999999999996
-0.9146341463414634,1.0975609756097562,-1.0975609756097562,0.44873046875,0.4462890625,0.79736328125,17.55,29.099999999999998,49.199999999999996
1.524390243902439,1.4634146341463417,0.6097560975609757,0.46484375,0.44970703125,0.8046875,15.899999999999999,28.2,49.35
0.1829268292682927,1.4634146341463417,-0.6097560975609757,0.45947265625,0.43896484375,0.7919921875,17.55,29.549999999999997,50.25
0.0,1.707317073170732,-2.682926829268293,0.46044921875,0.43505859375,0.7978515625,15.45,28.95,49.65
-1.707317073170732,1.6463414634146343,-1.1585365853658538,0.43896484375,0.4443359375,0.79345703125,18.3,29.549999999999997,49.949999999999996
1.7682926829268295,0.9756097560975611,-0.5487804878048781,0.46923828125,0.44482421875,0.79541015625,15.6,28.799999999999997,48.75
-1.0975609756097562,1.4634146341463417,-0.9756097560975611,0.4580078125,0.4423828125,0.794921875,16.05,29.549999999999997,49.199999999999996
0.30487804878048785,1.402439024390244,-0.9146341463414634,0.451171875,0.44287109375,0.79638671875,15.6,30.75,49.199999999999996
0.12195121951219513,1.9512195121951221,-0.48780487804878053,0.4658203125,0.45068359375,0.802734375,16.8,28.05,48.0
-1.1585365853658538,1.524390243902439,-0.853658536585366,0.4462890625,0.44677734375,0.80517578125,16.349999999999998,29.849999999999998,49.199999999999996
2.073170731707317,0.3658536585365854,-1.2804878048780488,0.45166015625,0.44921875,0.791015625,17.849999999999998,29.849999999999998,48.449999999999996
0.30487804878048785,0.853658536585366,2.3170731707317076,0.462890625,0.443359375,0.79931640625,15.45,27.45,49.35
1.2804878048780488,1.2195121951219514,-0.5487804878048781,0.44873046875,0.44384765625,0.79931640625,17.7,28.95,50.1
0.3658536585365854,0.12195121951219513,0.7926829268292683,0.46728515625,0.45556640625,0.79931640625,16.349999999999998,28.799999999999997,49.199999999999996
-0.5487804878048781,1.4634146341463417,-0.6707317073170732,0.45654296875,0.44287109375,0.81201171875,15.6,29.099999999999998,49.949999999999996
-0.426829268292683,2.1341463414634148,-0.48780487804878053,0.4619140625,0.4462890625,0.78271484375,16.2,27.75,48.3
-0.3658536585365854,1.2195121951219514,-1.7682926829268295,0.4384765625,0.43603515625,0.79150390625,16.8,27.599999999999998,49.5
0.0,1.3414634146341464,-1.0975609756097562,0.45947265625,0.4560546875,0.80078125,16.2,27.45,49.65
0.0,1.1585365853658538,1.0975609756097562,0.46142578125,0.443359375,0.79443359375,16.05,28.349999999999998,50.55
2.3170731707317076,1.8902439024390245,0.06097560975609757,0.4609375,0.44189453125,0.80078125,15.6,28.799999999999997,52.05
-0.5487804878048781,1.829268292682927,-1.1585365853658538,0.45556640625,0.44140625,0.79833984375,17.4,29.4,50.1
1.3414634146341464,1.0975609756097562,-0.24390243902439027,0.45166015625,0.447265625,0.80712890625,15.6,29.099999999999998,49.949999999999996
2.1341463414634148,0.48780487804878053,1.402439024390244,0.46044921875,0.44091796875,0.7890625,17.4,28.65,48.9
0.9146341463414634,1.6463414634146343,2.3170731707317076,0.46240234375,0.4482421875,0.79052734375,18.0,28.95,49.35
0.9756097560975611,1.2195121951219514,0.1829268292682927,0.4755859375,0.443359375,0.79833984375,17.7,30.45,51.449999999999996
0.426829268292683,0.06097560975609757,1.402439024390244,0.4599609375,0.453125,0.78466796875,16.8,29.849999999999998,50.25
0.0,1.0365853658536586,-0.7926829268292683,0.45654296875,0.4541015625,0.79345703125,17.7,28.65,48.6
-1.9512195121951221,0.7926829268292683,1.4634146341463417,0.4580078125,0.44287109375,0.794921875,17.099999999999998,29.099999999999998,49.949999999999996
1.0975609756097562,2.1341463414634148,-1.0365853658536586,0.46923828125,0.44775390625,0.79736328125,15.6,29.099999999999998,49.949999999999996
0.12195121951219513,1.7682926829268295,0.24390243902439027,0.46142578125,0.42431640625,0.8115234375,15.899999999999999,28.2,50.4
1.2195121951219514,-0.12195121951219513,1.8902439024390245,0.4521484375,0.44970703125,0.79736328125,16.05,28.349999999999998,48.0
0.5487804878048781,-0.5487804878048781,-2.9268292682926833,0.46142578125,0.44482421875,0.796875,15.899999999999999,28.95,50.1
-0.12195121951219513,3.2926829268292686,-0.426829268292683,0.45849609375,0.43798828125,0.78955078125,17.4,29.7,49.65
-0.30487804878048785,1.8902439024390245,-1.524390243902439,0.4677734375,0.4560546875,0.798828125,16.349999999999998,27.3,49.949999999999996
0.30487804878048785,0.48780487804878053,-0.1829268292682927,0.44970703125,0.4423828125,0.796875,17.55,29.549999999999997,49.199999999999996
0.5487804878048781,0.9146341463414634,0.6097560975609757,0.458984375,0.44921875,0.79638671875,15.899999999999999,29.4,51.449999999999996
-1.402439024390244,0.24390243902439027,-1.0975609756097562,0.4560546875,0.443359375,0.80810546875,16.349999999999998,28.799999999999997,51.0
0.9756097560975611,0.853658536585366,0.9756097560975611,0.4619140625,0.4501953125,0.794921875,15.899999999999999,27.75,48.9
-1.829268292682927,1.6463414634146343,-1.1585365853658538,0.4404296875,0.43408203125,0.79150390625,16.8,29.099999999999998,49.949999999999996
2.25609756097561,0.9146341463414634,1.0365853658536586,0.45458984375,0.44287109375,0.79931640625,16.2,29.7,48.9
3.1097560975609757,0.853658536585366,2.25609756097561,0.4658203125,0.45166015625,0.7978515625,16.65,28.2,49.35
-0.426829268292683,2.9268292682926833,0.24390243902439027,0.4619140625,0.4326171875,0.79296875,16.349999999999998,29.099999999999998,49.5
0.6097560975609757,0.9756097560975611,-0.9146341463414634,0.4501953125,0.44775390625,0.79931640625,17.099999999999998,29.099999999999998,49.5
-3.4756097560975614,-0.1829268292682927,-0.24390243902439027,0.45556640625,0.447265625,0.80517578125,16.2,28.65,49.65
-0.6097560975609757,-1.0365853658536586,0.30487804878048785,0.45556640625,0.44189453125,0.80224609375,14.7,28.65,50.4
1.2804878048780488,2.25609756097561,0.426829268292683,0.46142578125,0.45166015625,0.80029296875,14.85,28.349999999999998,49.949999999999996
-1.8902439024390245,1.0365853658536586,0.3658536585365854,0.44873046875,0.43017578125,0.79345703125,16.349999999999998,30.299999999999997,50.55
1.6463414634146343,-1.0365853658536586,1.3414634146341464,0.4580078125,0.45849609375,0.80224609375,16.8,29.849999999999998,50.25
0.6707317073170732,1.2804878048780488,-0.1829268292682927,0.45166015625,0.44677734375,0.79931640625,16.2,28.95,50.4
2.8658536585365857,1.7682926829268295,-1.1585365853658538,0.45849609375,0.44921875,0.79150390625,14.549999999999999,27.3,49.199999999999996
-1.6463414634146343,1.7682926829268295,-0.6707317073170732,0.45751953125,0.44384765625,0.798828125,15.6,28.05,50.25
2.0121951219512195,-0.12195121951219513,1.2804878048780488,0.45703125,0.43505859375,0.7939453125,15.6,27.599999999999998,48.75
-1.1585365853658538,2.5609756097560976,-1.6463414634146343,0.4521484375,0.44287109375,0.7958984375,16.8,29.099999999999998,49.5
-1.1585365853658538,3.7195121951219514,-2.5609756097560976,0.46044921875,0.451171875,0.798828125,16.05,29.099999999999998,49.199999999999996
-0.6097560975609757,0.1829268292682927,2.378048780487805,0.4453125,0.42138671875,0.80224609375,15.299999999999999,29.849999999999998,49.949999999999996
-0.7317073170731708,1.6463414634146343,-2.439024390243903,0.46044921875,0.4482421875,0.796875,16.2,29.4,51.449999999999996
-0.9146341463414634,2.3170731707317076,-1.6463414634146343,0.45654296875,0.44384765625,0.80517578125,15.149999999999999,30.45,48.6
1.0365853658536586,1.6463414634146343,0.24390243902439027,0.4541015625,0.4345703125,0.791015625,17.849999999999998,28.05,49.5
1.2804878048780488,-0.1829268292682927,1.6463414634146343,0.45703125,0.435546875,0.7958984375,16.2,28.65,50.1
-2.0121951219512195,1.707317073170732,-0.6707317073170732,0.44873046875,0.44580078125,0.78564453125,16.65,29.4,49.35
0.7317073170731708,1.0365853658536586,0.30487804878048785,0.4677734375,0.44775390625,0.79443359375,17.099999999999998,29.549999999999997,48.449999999999996
0.12195121951219513,2.25609756097561,0.6097560975609757,0.46728515625,0.4404296875,0.79345703125,17.4,28.65,49.35
0.9756097560975611,1.8902439024390245,-0.12195121951219513,0.462890625,0.4482421875,0.80078125,17.099999999999998,29.849999999999998,50.25
-2.439024390243903,1.8902439024390245,-1.4634146341463417,0.4619140625,0.44091796875,0.79931640625,15.899999999999999,28.65,48.9
2.1341463414634148,1.2804878048780488,-0.48780487804878053,0.44921875,0.44921875,0.79052734375,16.05,28.349999999999998,48.75
1.0975609756097562,1.2804878048780488,0.7317073170731708,0.46435546875,0.44189453125,0.80859375,16.65,30.15,50.4
-0.6097560975609757,1.9512195121951221,1.524390243902439,0.46337890625,0.44873046875,0.79833984375,16.349999999999998,28.05,49.199999999999996
1.2195121951219514,1.2804878048780488,0.12195121951219513,0.4482421875,0.4375,0.81201171875,16.05,28.349999999999998,50.25
-2.5609756097560976,-1.0365853658536586,0.9146341463414634,0.4521484375,0.4443359375,0.79931640625,16.65,28.95,48.6
1.3414634146341464,1.9512195121951221,0.426829268292683,0.453125,0.45068359375,0.78857421875,16.8,29.549999999999997,49.949999999999996
2.1951219512195124,1.829268292682927,-1.2195121951219514,0.4580078125,0.45166015625,0.7880859375,16.95,28.65,49.65
3.1707317073170733,-0.7926829268292683,-1.6463414634146343,0.447265625,0.44140625,0.796875,16.65,30.15,49.35
0.48780487804878053,1.2195121951219514,0.24390243902439027,0.46337890625,0.447265625,0.798828125,16.349999999999998,30.299999999999997,49.5
0.48780487804878053,2.3170731707317076,-0.1829268292682927,0.4580078125,0.43115234375,0.80029296875,16.8,28.799999999999997,49.5
-1.829268292682927,-0.24390243902439027,0.5487804878048781,0.45458984375,0.43359375,0.798828125,15.149999999999999,28.95,50.1
-1.402439024390244,0.7317073170731708,-0.6097560975609757,0.451171875,0.4345703125,0.79541015625,15.899999999999999,27.75,49.35
2.073170731707317,0.12195121951219513,-0.6097560975609757,0.4521484375,0.4365234375,0.79541015625,16.349999999999998,29.549999999999997,49.949999999999996
-1.6463414634146343,1.0975609756097562,0.7926829268292683,0.45654296875,0.4375,0.8046875,15.299999999999999,29.549999999999997,49.5
3.658536585365854,0.3658536585365854,-1.0975609756097562,0.45263671875,0.44140625,0.80029296875,15.899999999999999,28.95,49.35
-1.524390243902439,1.1585365853658538,-0.06097560975609757,0.47265625,0.439453125,0.8017578125,16.349999999999998,28.799999999999997,50.25
1.8902439024390245,-0.30487804878048785,-2.073170731707317,0.45361328125,0.4453125,0.80029296875,17.4,27.75,49.35
-2.1951219512195124,-0.9756097560975611,-0.9146341463414634,0.4541015625,0.44970703125,0.8076171875,18.0,29.7,50.4
0.9146341463414634,-0.6097560975609757,-0.3658536585365854,0.45849609375,0.44580078125,0.79443359375,16.349999999999998,29.549999999999997,50.25
-1.0365853658536586,1.8902439024390245,-0.853658536585366,0.466796875,0.43896484375,0.78662109375,16.65,28.2,49.35
1.402439024390244,2.3170731707317076,0.9146341463414634,0.46728515625,0.4609375,0.787109375,17.4,29.4,48.6
0.853658536585366,2.3170731707317076,-0.5487804878048781,0.44970703125,0.4326171875,0.7890625,16.65,28.65,50.85
-3.8414634146341466,2.1951219512195124,-0.30487804878048785,0.46630859375,0.44189453125,0.7861328125,16.95,29.4,48.9
1.402439024390244,0.9756097560975611,-2.0121951219512195,0.4638671875,0.4423828125,0.79931640625,16.8,29.849999999999998,46.949999999999996
-1.9512195121951221,0.3658536585365854,0.6097560975609757,0.45361328125,0.44384765625,0.80078125,16.2,27.75,48.9
1.402439024390244,2.439024390243903,0.12195121951219513,0.46240234375,0.43798828125,0.79345703125,16.65,29.7,50.1
2.0121951219512195,0.6097560975609757,-0.6707317073170732,0.4482421875,0.44384765625,0.7939453125,18.0,29.7,48.9
0.9756097560975611,1.829268292682927,0.48780487804878053,0.46875,0.4541015625,0.79931640625,16.95,28.2,49.35
2.439024390243903,0.24390243902439027,0.5487804878048781,0.45703125,0.43701171875,0.7880859375,16.65,28.95,48.9
1.2804878048780488,0.12195121951219513,0.24390243902439027,0.46044921875,0.44384765625,0.80078125,15.299999999999999,28.799999999999997,50.25
1.402439024390244,-0.5487804878048781,-0.06097560975609757,0.4658203125,0.43212890625,0.798828125,16.95,28.95,50.4
-2.25609756097561,-1.1585365853658538,-0.7926829268292683,0.4638671875,0.44482421875,0.78515625,16.95,28.2,48.9
2.5,2.0121951219512195,0.3658536585365854,0.4404296875,0.4296875,0.7939453125,16.95,29.4,49.65
-1.0975609756097562,0.7926829268292683,-1.6463414634146343,0.46337890625,0.447265625,0.802734375,16.349999999999998,31.049999999999997,49.949999999999996
0.7926829268292683,0.5487804878048781,0.24390243902439027,0.4580078125,0.447265625,0.79638671875,16.65,28.95,50.1
-0.7926829268292683,0.24390243902439027,1.6463414634146343,0.46630859375,0.4345703125,0.80615234375,15.6,29.099999999999998,48.75
-0.1829268292682927,2.073170731707317,-0.9146341463414634,0.4638671875,0.44677734375,0.806640625,16.8,29.099999999999998,51.3
0.1829268292682927,1.402439024390244,-3.048780487804878,0.45751953125,0.42919921875,0.7958984375,17.4,28.2,50.1
-1.0975609756097562,2.0121951219512195,-2.804878048780488,0.46142578125,0.46240234375,0.794921875,15.45,28.65,50.4
1.7682926829268295,-0.48780487804878053,3.1707317073170733,0.455078125,0.43701171875,0.8017578125,16.349999999999998,28.799999999999997,49.199999999999996
-0.1829268292682927,0.24390243902439027,1.0975609756097562,0.4580078125,0.45166015625,0.8056640625,16.349999999999998,28.05,49.5
-1.2804878048780488,1.1585365853658538,1.5853658536585367,0.4599609375,0.43798828125,0.798828125,16.05,28.799999999999997,50.55
1.524390243902439,0.853658536585366,-0.3658536585365854,0.46484375,0.4326171875,0.7900390625,17.7,29.7,49.65
0.6097560975609757,1.3414634146341464,1.1585365853658538,0.46240234375,0.44189453125,0.806640625,16.8,29.849999999999998,50.25
-2.5,2.9268292682926833,-0.9146341463414634,0.4560546875,0.431640625,0.7998046875,16.65,28.2,50.1
-0.9756097560975611,1.2804878048780488,-0.7317073170731708,0.46630859375,0.43505859375,0.79248046875,16.05,29.549999999999997,49.949999999999996
0.6097560975609757,2.0121951219512195,2.1951219512195124,0.44921875,0.44482421875,0.8056640625,18.3,29.099999999999998,50.55
-2.5609756097560976,4.024390243902439,-1.2195121951219514,0.4462890625,0.44921875,0.78759765625,16.95,30.45,47.85
-0.06097560975609757,1.829268292682927,-0.7317073170731708,0.45556640625,0.43994140625,0.7998046875,14.549999999999999,28.349999999999998,49.5
-2.378048780487805,-0.7317073170731708,1.3414634146341464,0.45263671875,0.44873046875,0.7958984375,18.3,29.099999999999998,50.25
-1.6463414634146343,1.0365853658536586,0.5487804878048781,0.4609375,0.43701171875,0.8037109375,16.95,29.7,50.4
-0.30487804878048785,0.6097560975609757,0.3658536585365854,0.45361328125,0.43994140625,0.7900390625,16.8,29.849999999999998,50.55
-0.1829268292682927,3.963414634146342,1.3414634146341464,0.45166015625,0.4619140625,0.80029296875,16.65,28.65,49.35
0.30487804878048785,-0.06097560975609757,-0.853658536585366,0.4677734375,0.453125,0.80712890625,17.4,28.2,49.65
1.3414634146341464,0.7317073170731708,0.1829268292682927,0.4443359375,0.4423828125,0.7880859375,16.65,28.65,49.65
-1.1585365853658538,2.1341463414634148,0.48780487804878053,0.44921875,0.44091796875,0.8056640625,17.099999999999998,28.349999999999998,49.5
-0.853658536585366,2.1951219512195124,1.1585365853658538,0.447265625,0.4521484375,0.79248046875,16.8,30.299999999999997,49.949999999999996
0.24390243902439027,1.402439024390244,-1.0975609756097562,0.46044921875,0.43798828125,0.8017578125,15.299999999999999,29.849999999999998,48.75
-1.2804878048780488,2.7439024390243905,-0.853658536585366,0.45849609375,0.4365234375,0.80224609375,15.6,28.799999999999997,49.5
0.7926829268292683,-0.7926829268292683,0.426829268292683,0.4638671875,0.44384765625,0.79296875,15.6,29.099999999999998,49.199999999999996
2.7439024390243905,2.9268292682926833,1.1585365853658538,0.45947265625,0.44775390625,0.8037109375,17.099999999999998,29.849999999999998,51.0
-2.3170731707317076,1.7682926829268295,-0.1829268292682927,0.451171875,0.4423828125,0.79345703125,17.099999999999998,29.849999999999998,49.949999999999996
