gx,gy,gz,ax,ay,az,mx,my,mz
-2.073170731707317,0.3658536585365854,-1.707317073170732,0.4560546875,0.4541015625,0.79150390625,16.65,27.75,49.65
-0.6097560975609757,-0.1829268292682927,-0.24390243902439027,0.4697265625,0.4453125,0.798828125,16.65,28.2,48.9
-1.0975609756097562,0.6097560975609757,0.0,0.45166015625,0.439453125,0.802734375,16.95,28.95,48.9
0.7926829268292683,1.9512195121951221,1.2804878048780488,0.4560546875,0.46240234375,0.7998046875,16.8,29.099999999999998,48.449999999999996
1.2195121951219514,2.5,1.2804878048780488,0.45556640625,0.4521484375,0.80615234375,16.65,30.45,49.35
1.707317073170732,-0.426829268292683,1.2195121951219514,0.458984375,0.44482421875,0.79638671875,17.4,29.4,50.4
-0.5487804878048781,0.426829268292683,-0.24390243902439027,0.4541015625,0.44775390625,0.79296875,17.4,29.7,48.9
-0.7317073170731708,0.7317073170731708,-1.4634146341463417,0.46728515625,0.44482421875,0.79296875,16.95,28.2,48.9
1.3414634146341464,2.0121951219512195,0.12195121951219513,0.4609375,0.44921875,0.80712890625,16.2,29.4,49.65
-0.30487804878048785,-0.06097560975609757,-1.7682926829268295,0.455078125,0.44091796875,0.7841796875,16.65,29.7,48.9
0.7317073170731708,-0.30487804878048785,-0.6097560975609757,0.45751953125,0.43603515625,0.8037109375,15.899999999999999,29.7,49.35
-0.853658536585366,0.7926829268292683,0.1829268292682927,0.4599609375,0.43603515625,0.80126953125,17.849999999999998,28.799999999999997,49.199999999999996
2.378048780487805,0.5487804878048781,-0.3658536585365854,0.45654296875,0.43798828125,0.7978515625,15.899999999999999,28.65,49.35
-0.6707317073170732,-0.06097560975609757,-2.25609756097561,0.45556640625,0.431640625,0.7919921875,17.55,29.849999999999998,49.5
1.829268292682927,1.4634146341463417,0.1829268292682927,0.44970703125,0.4365234375,0.78955078125,16.2,28.95,50.4
-0.06097560975609757,-0.853658536585366,-1.8902439024390245,0.46923828125,0.44873046875,0.80078125,16.65,28.95,49.65
-0.9756097560975611,3.5975609756097566,1.5853658536585367,0.4423828125,0.44384765625,0.78955078125,17.099999999999998,28.799999999999997,49.5
-1.402439024390244,2.073170731707317,-0.426829268292683,0.4609375,0.447265625,0.79736328125,16.8,29.549999999999997,48.449999999999996
0.30487804878048785,1.707317073170732,-3.1707317073170733,0.46923828125,0.44384765625,0.7998046875,15.299999999999999,29.099999999999998,49.5
-0.1829268292682927,2.073170731707317,-1.6463414634146343,0.45166015625,0.44775390625,0.80078125,15.6,29.549999999999997,49.199999999999996
0.12195121951219513,1.0365853658536586,-2.073170731707317,0.451171875,0.4375,0.79345703125,17.4,28.2,50.1
3.658536585365854,1.8902439024390245,1.0975609756097562,0.46484375,0.44921875,0.7841796875,16.95,30.15,50.1
1.5853658536585367,0.7926829268292683,-0.06097560975609757,0.45361328125,0.43505859375,0.79638671875,15.6,28.349999999999998,49.949999999999996
4.024390243902439,0.48780487804878053,1.2195121951219514,0.466796875,0.4375,0.79443359375,16.2,28.95,48.3
-0.853658536585366,-0.24390243902439027,-0.426829268292683,0.46826171875,0.44140625,0.79443359375,16.65,27.75,48.9
-1.2195121951219514,2.439024390243903,-0.06097560975609757,0.4677734375,0.451171875,0.7880859375,16.8,28.799999999999997,49.5
-0.06097560975609757,1.4634146341463417,2.682926829268293,0.453125,0.43408203125,0.79052734375,16.05,28.349999999999998,50.25
-1.8902439024390245,2.1951219512195124,-0.24390243902439027,0.45458984375,0.443359375,0.80224609375,16.95,28.95,50.1
0.0,0.853658536585366,-0.426829268292683,0.4521484375,0.43896484375,0.79248046875,16.65,30.45,48.6
0.24390243902439027,2.378048780487805,0.9146341463414634,0.46435546875,0.4326171875,0.79541015625,17.4,28.95,49.35
0.06097560975609757,0.24390243902439027,-0.6707317073170732,0.4599609375,0.4580078125,0.80419921875,16.349999999999998,29.099999999999998,49.5
-1.9512195121951221,2.8658536585365857,-1.0365853658536586,0.4619140625,0.44677734375,0.791015625,16.65,28.349999999999998,48.75
2.6219512195121952,1.5853658536585367,1.0365853658536586,0.44921875,0.44677734375,0.79345703125,16.2,30.9,48.6
1.707317073170732,-1.4634146341463417,-0.7317073170731708,0.46728515625,0.4521484375,0.79638671875,16.05,29.849999999999998,49.199999999999996
-0.7926829268292683,2.987804878048781,-0.24390243902439027,0.45361328125,0.44189453125,0.79296875,16.05,29.099999999999998,49.199999999999996
1.8902439024390245,1.0975609756097562,-0.5487804878048781,0.4521484375,0.435546875,0.79345703125,16.65,29.7,49.65
-1.402439024390244,-0.7317073170731708,0.426829268292683,0.46435546875,0.44921875,0.80078125,16.05,29.549999999999997,50.25
0.3658536585365854,2.439024390243903,-0.48780487804878053,0.4599609375,0.4404296875,0.80419921875,14.7,28.95,50.1
-1.5853658536585367,4.634146341463415,-0.7317073170731708,0.4599609375,0.447265625,0.787109375,17.099999999999998,29.849999999999998,49.5
-0.24390243902439027,1.6463414634146343,-0.12195121951219513,0.46142578125,0.44384765625,0.78955078125,16.95,28.95,49.65
1.5853658536585367,1.2195121951219514,0.7317073170731708,0.45849609375,0.44287109375,0.79345703125,17.55,29.549999999999997,49.199999999999996
-0.12195121951219513,2.1341463414634148,-0.7926829268292683,0.4638671875,0.44970703125,0.7900390625,16.05,28.799999999999997,50.25
1.0365853658536586,1.1585365853658538,0.06097560975609757,0.458984375,0.44580078125,0.7958984375,15.899999999999999,28.65,48.9
-1.402439024390244,1.8902439024390245,-1.7682926829268295,0.45361328125,0.458984375,0.7958984375,16.8,30.75,50.25
1.3414634146341464,1.2804878048780488,-2.1951219512195124,0.45361328125,0.447265625,0.796875,16.65,28.95,50.1
-2.9268292682926833,2.25609756097561,0.24390243902439027,0.44580078125,0.44140625,0.802734375,16.65,28.65,49.65
1.9512195121951221,-0.1829268292682927,-0.12195121951219513,0.458984375,0.4462890625,0.79052734375,17.4,29.4,49.65
-1.0365853658536586,-0.30487804878048785,1.5853658536585367,0.46240234375,0.43310546875,0.7978515625,17.099999999999998,28.05,50.25
1.1585365853658538,1.1585365853658538,0.853658536585366,0.46923828125,0.45458984375,0.78369140625,17.4,28.95,49.65
0.9756097560975611,2.1341463414634148,-0.5487804878048781,0.4541015625,0.43310546875,0.79296875,15.899999999999999,28.95,49.65
-1.1585365853658538,-0.426829268292683,3.658536585365854,0.46044921875,0.4462890625,0.80029296875,17.099999999999998,30.75,50.1
0.0,1.4634146341463417,1.8902439024390245,0.45654296875,0.44287109375,0.78564453125,15.899999999999999,29.7,49.35
1.524390243902439,0.853658536585366,1.1585365853658538,0.4638671875,0.43310546875,0.794921875,16.8,29.549999999999997,49.199999999999996
-0.30487804878048785,0.24390243902439027,-0.24390243902439027,0.46826171875,0.4423828125,0.80517578125,15.899999999999999,28.2,49.65
-0.48780487804878053,2.9268292682926833,2.5609756097560976,0.4560546875,0.45947265625,0.7890625,15.299999999999999,29.549999999999997,48.449999999999996
0.7926829268292683,0.1829268292682927,-0.7926829268292683,0.43994140625,0.4326171875,0.79736328125,16.05,29.849999999999998,49.5
-1.0365853658536586,2.5609756097560976,2.25609756097561,0.47216796875,0.447265625,0.7939453125,14.7,30.45,49.65
3.1097560975609757,0.1829268292682927,2.073170731707317,0.4599609375,0.44775390625,0.7861328125,14.85,28.349999999999998,49.949999999999996
-0.24390243902439027,3.8414634146341466,-1.0365853658536586,0.46484375,0.44482421875,0.796875,18.599999999999998,28.349999999999998,50.25
-2.5609756097560976,3.231707317073171,-1.9512195121951221,0.46142578125,0.4423828125,0.794921875,16.65,28.65,49.35
1.829268292682927,1.6463414634146343,-0.853658536585366,0.4619140625,0.4384765625,0.79345703125,16.349999999999998,29.549999999999997,50.55
-0.1829268292682927,0.6097560975609757,0.7926829268292683,0.458984375,0.4443359375,0.7958984375,17.55,29.099999999999998,50.55
1.9512195121951221,0.5487804878048781,0.1829268292682927,0.44873046875,0.44775390625,0.79443359375,16.2,28.65,50.1
-0.30487804878048785,-0.12195121951219513,-0.48780487804878053,0.4560546875,0.45703125,0.798828125,17.099999999999998,29.849999999999998,48.449999999999996
-1.829268292682927,1.8902439024390245,1.3414634146341464,0.455078125,0.43408203125,0.796875,17.099999999999998,29.099999999999998,48.449999999999996
-1.829268292682927,1.1585365853658538,-0.853658536585366,0.45654296875,0.43896484375,0.79638671875,17.55,28.349999999999998,50.25
0.5487804878048781,0.3658536585365854,-0.1829268292682927,0.45556640625,0.4326171875,0.80615234375,16.05,28.799999999999997,49.949999999999996
-0.1829268292682927,-0.24390243902439027,-0.5487804878048781,0.458984375,0.4384765625,0.80859375,16.8,29.849999999999998,48.75
-1.2804878048780488,0.853658536585366,0.06097560975609757,0.4609375,0.44873046875,0.80126953125,16.2,30.15,50.1
3.9024390243902443,-0.1829268292682927,0.6707317073170732,0.46044921875,0.4375,0.787109375,15.899999999999999,28.95,49.35
-0.9146341463414634,-0.3658536585365854,0.5487804878048781,0.455078125,0.45263671875,0.79248046875,16.05,29.099999999999998,48.449999999999996
1.4634146341463417,1.0365853658536586,0.1829268292682927,0.45361328125,0.447265625,0.78759765625,17.7,27.75,50.4
-1.8902439024390245,2.1341463414634148,-0.24390243902439027,0.45947265625,0.45068359375,0.8017578125,15.45,28.95,49.35
-1.6463414634146343,-0.9146341463414634,0.7926829268292683,0.4638671875,0.43701171875,0.80615234375,17.4,29.7,49.65
0.24390243902439027,1.2804878048780488,2.0121951219512195,0.45703125,0.45068359375,0.79736328125,17.7,28.65,48.9
0.12195121951219513,1.524390243902439,0.1829268292682927,0.462890625,0.4453125,0.806640625,16.349999999999998,28.349999999999998,49.199999999999996
-1.9512195121951221,-0.7926829268292683,-0.6097560975609757,0.45703125,0.45068359375,0.80224609375,16.349999999999998,27.599999999999998,48.449999999999996
0.0,0.7926829268292683,-0.7317073170731708,0.478515625,0.45166015625,0.80615234375,17.849999999999998,29.549999999999997,49.949999999999996
-1.3414634146341464,-0.3658536585365854,-2.804878048780488,0.45654296875,0.4375,0.8017578125,16.349999999999998,29.099999999999998,49.199999999999996
1.9512195121951221,0.1829268292682927,1.0975609756097562,0.46826171875,0.4482421875,0.80810546875,16.95,28.95,49.65
1.4634146341463417,0.9756097560975611,0.0,0.46044921875,0.4423828125,0.79541015625,17.099999999999998,29.099999999999998,49.949999999999996
0.1829268292682927,1.6463414634146343,-0.7926829268292683,0.45263671875,0.44384765625,0.79638671875,18.45,29.4,50.1
-2.439024390243903,1.7682926829268295,-1.2195121951219514,0.46142578125,0.44775390625,0.7802734375,16.2,31.2,50.1
0.24390243902439027,0.7317073170731708,-0.5487804878048781,0.46435546875,0.44775390625,0.79443359375,17.099999999999998,28.799999999999997,49.199999999999996
-4.024390243902439,0.853658536585366,2.073170731707317,0.4658203125,0.443359375,0.79833984375,16.2,28.95,51.15
2.25609756097561,2.987804878048781,0.6707317073170732,0.45947265625,0.44384765625,0.7978515625,18.0,29.4,49.65
0.426829268292683,0.5487804878048781,-2.5609756097560976,0.46630859375,0.435546875,0.7900390625,16.2,27.45,49.35
-0.30487804878048785,-0.7317073170731708,-2.1341463414634148,0.4609375,0.43603515625,0.7900390625,16.65,29.7,48.9
0.9756097560975611,2.6219512195121952,-2.3170731707317076,0.451171875,0.4404296875,0.7978515625,16.95,29.4,50.1
0.7926829268292683,0.9146341463414634,0.12195121951219513,0.458984375,0.45361328125,0.7958984375,14.399999999999999,29.7,49.35
-0.30487804878048785,0.6097560975609757,0.30487804878048785,0.45849609375,0.43798828125,0.79541015625,18.3,29.099999999999998,49.5
-3.353658536585366,1.402439024390244,-0.30487804878048785,0.4736328125,0.44287109375,0.80615234375,16.2,28.95,50.1
1.6463414634146343,0.7926829268292683,-0.9756097560975611,0.44482421875,0.451171875,0.8017578125,17.55,29.099999999999998,49.5
-2.378048780487805,1.707317073170732,-1.9512195121951221,0.4638671875,0.44580078125,0.8017578125,16.65,29.4,48.9
0.3658536585365854,1.707317073170732,-0.24390243902439027,0.458984375,0.44873046875,0.80224609375,17.099999999999998,28.05,49.949999999999996
-0.48780487804878053,1.0365853658536586,-1.6463414634146343,0.46728515625,0.4345703125,0.80419921875,16.05,28.05,50.55
0.9756097560975611,1.3414634146341464,0.24390243902439027,0.455078125,0.4375,0.79541015625,16.8,29.099999999999998,48.75
1.7682926829268295,0.426829268292683,-0.426829268292683,0.4482421875,0.43505859375,0.7998046875,14.7,29.4,49.65
-1.829268292682927,0.12195121951219513,-1.5853658536585367,0.46044921875,0.4384765625,0.79541015625,16.8,29.549999999999997,49.199999999999996
-0.6097560975609757,1.0365853658536586,0.6707317073170732,0.46630859375,0.4423828125,0.79638671875,14.85,28.799999999999997,50.25
-1.1585365853658538,-1.0365853658536586,-1.7682926829268295,0.45654296875,0.4501953125,0.79345703125,16.95,28.95,48.9
-0.7317073170731708,-0.48780487804878053,-1.524390243902439,0.44482421875,0.44921875,0.79541015625,15.899999999999999,28.2,48.9
-1.707317073170732,3.2926829268292686,-1.707317073170732,0.45361328125,0.439453125,0.80126953125,16.8,29.849999999999998,50.25
1.8902439024390245,1.0975609756097562,0.7926829268292683,0.4541015625,0.43701171875,0.79736328125,15.899999999999999,28.65,51.15
-1.9512195121951221,0.30487804878048785,1.2804878048780488,0.4599609375,0.4423828125,0.80078125,17.7,28.65,49.35
-1.4634146341463417,0.3658536585365854,0.6707317073170732,0.4697265625,0.4560546875,0.79638671875,17.4,28.65,50.1
1.524390243902439,0.5487804878048781,-0.9756097560975611,0.4697265625,0.4443359375,0.79638671875,15.899999999999999,28.95,49.35
-1.5853658536585367,-0.30487804878048785,0.12195121951219513,0.45361328125,0.4482421875,0.78955078125,16.2,30.15,49.35
1.8902439024390245,2.439024390243903,-1.2804878048780488,0.4716796875,0.44384765625,0.79736328125,16.349999999999998,29.549999999999997,48.75
-1.4634146341463417,-0.426829268292683,-0.1829268292682927,0.45458984375,0.44091796875,0.78662109375,16.95,30.15,49.65
-0.12195121951219513,3.2926829268292686,-0.9146341463414634,0.45263671875,0.4482421875,0.7822265625,16.65,27.45,48.3
0.24390243902439027,-0.853658536585366,-0.9146341463414634,0.46875,0.45068359375,0.79150390625,16.95,29.7,48.6
-2.0121951219512195,0.7926829268292683,1.707317073170732,0.4697265625,0.44775390625,0.798828125,18.3,28.05,48.0
0.12195121951219513,1.3414634146341464,-1.0975609756097562,0.4521484375,0.4404296875,0.796875,16.05,28.349999999999998,49.5
0.06097560975609757,1.2804878048780488,0.30487804878048785,0.453125,0.43408203125,0.78466796875,16.2,30.15,50.1
0.3658536585365854,-0.3658536585365854,0.426829268292683,0.458984375,0.44189453125,0.8017578125,16.349999999999998,28.349999999999998,48.449999999999996
-2.1341463414634148,2.9268292682926833,-1.1585365853658538,0.4521484375,0.45263671875,0.80078125,16.05,28.799999999999997,49.949999999999996
2.3170731707317076,2.0121951219512195,-0.853658536585366,0.4521484375,0.43505859375,0.798828125,16.05,28.799999999999997,50.25
1.2195121951219514,1.6463414634146343,2.1951219512195124,0.46484375,0.44677734375,0.79345703125,17.099999999999998,29.549999999999997,49.949999999999996
-1.3414634146341464,1.1585365853658538,0.853658536585366,0.4482421875,0.44970703125,0.79296875,17.099999999999998,29.099999999999998,50.55
-1.829268292682927,2.3170731707317076,0.6097560975609757,0.4580078125,0.44287109375,0.8046875,16.65,29.7,48.9
-2.3170731707317076,1.402439024390244,0.24390243902439027,0.44482421875,0.4462890625,0.81103515625,15.899999999999999,30.15,49.65
0.1829268292682927,1.829268292682927,-1.524390243902439,0.44970703125,0.44482421875,0.79345703125,16.65,29.7,47.85
-0.12195121951219513,1.4634146341463417,-0.06097560975609757,0.44921875,0.43310546875,0.80322265625,16.05,28.799999999999997,49.5
0.06097560975609757,0.853658536585366,-1.6463414634146343,0.4609375,0.44189453125,0.78955078125,17.099999999999998,29.099999999999998,49.5
2.0121951219512195,-0.9756097560975611,-0.12195121951219513,0.46435546875,0.44921875,0.80908203125,16.8,26.55,48.449999999999996
2.987804878048781,-0.30487804878048785,1.402439024390244,0.4482421875,0.4423828125,0.7890625,15.899999999999999,28.95,50.1
1.2804878048780488,1.402439024390244,-1.6463414634146343,0.45947265625,0.43603515625,0.796875,15.899999999999999,29.4,48.3
-1.5853658536585367,2.3170731707317076,1.7682926829268295,0.4658203125,0.45556640625,0.7890625,15.6,28.05,49.949999999999996
1.6463414634146343,2.987804878048781,-0.06097560975609757,0.4580078125,0.44580078125,0.79541015625,15.6,27.599999999999998,49.949999999999996
-4.146341463414634,1.8902439024390245,-0.24390243902439027,0.46240234375,0.453125,0.7958984375,17.7,30.15,49.65
-2.5,0.3658536585365854,0.3658536585365854,0.462890625,0.44140625,0.79296875,17.099999999999998,29.099999999999998,50.55
-0.9756097560975611,-0.06097560975609757,1.5853658536585367,0.45263671875,0.43603515625,0.79443359375,15.149999999999999,29.7,49.65
0.9146341463414634,1.5853658536585367,-1.5853658536585367,0.453125,0.431640625,0.798828125,16.2,30.15,48.6
-0.06097560975609757,1.5853658536585367,0.3658536585365854,0.453125,0.44287109375,0.8076171875,17.55,29.549999999999997,49.5
0.1829268292682927,1.2195121951219514,-0.30487804878048785,0.462890625,0.439453125,0.80322265625,16.65,28.65,49.35
0.48780487804878053,1.0975609756097562,0.12195121951219513,0.45751953125,0.4423828125,0.79541015625,16.349999999999998,28.349999999999998,49.5
-0.30487804878048785,0.7926829268292683,1.6463414634146343,0.4599609375,0.4560546875,0.78369140625,16.2,28.95,48.9
0.0,-1.1585365853658538,-1.6463414634146343,0.46630859375,0.4541015625,0.7958984375,15.6,29.099999999999998,49.199999999999996
-2.0121951219512195,1.402439024390244,0.0,0.45751953125,0.4423828125,0.79736328125,16.05,28.05,50.25
-0.24390243902439027,0.426829268292683,-0.1829268292682927,0.45947265625,0.4462890625,0.7900390625,16.8,28.799999999999997,48.75
-2.5,-0.30487804878048785,1.9512195121951221,0.462890625,0.4296875,0.8056640625,17.4,29.4,48.3
-0.5487804878048781,1.5853658536585367,1.5853658536585367,0.46337890625,0.4423828125,0.791015625,16.05,27.3,50.25
1.4634146341463417,0.3658536585365854,-0.1829268292682927,0.45849609375,0.43603515625,0.80859375,16.05,28.349999999999998,49.199999999999996
0.1829268292682927,-0.06097560975609757,-1.8902439024390245,0.453125,0.44189453125,0.7880859375,15.149999999999999,28.95,50.1
1.6463414634146343,1.9512195121951221,-1.0365853658536586,0.458984375,0.44384765625,0.80322265625,16.95,30.45,49.35
1.0975609756097562,-0.7317073170731708,2.6219512195121952,0.45703125,0.44580078125,0.79931640625,16.349999999999998,29.549999999999997,49.5
-0.426829268292683,1.6463414634146343,-1.2804878048780488,0.46826171875,0.43798828125,0.7958984375,17.7,27.75,48.6
-1.402439024390244,1.2804878048780488,-1.0365853658536586,0.46142578125,0.44677734375,0.79150390625,15.45,30.15,48.9
1.3414634146341464,1.6463414634146343,0.3658536585365854,0.45849609375,0.447265625,0.79296875,17.7,28.65,49.35
-1.7682926829268295,0.9756097560975611,0.7926829268292683,0.45703125,0.45556640625,0.81201171875,16.8,28.799999999999997,49.5
0.30487804878048785,0.12195121951219513,-1.0365853658536586,0.46728515625,0.45654296875,0.7822265625,16.95,28.95,50.1
0.30487804878048785,0.853658536585366,-1.8902439024390245,0.4541015625,0.42919921875,0.79833984375,16.2,28.65,50.1
-1.4634146341463417,0.24390243902439027,0.06097560975609757,0.46484375,0.4609375,0.7958984375,16.349999999999998,29.099999999999998,49.5
1.9512195121951221,2.073170731707317,0.7317073170731708,0.45654296875,0.4423828125,0.80859375,15.299999999999999,29.099999999999998,49.949999999999996
0.12195121951219513,0.12195121951219513,1.7682926829268295,0.45654296875,0.44580078125,0.8037109375,15.45,28.65,48.9
2.25609756097561,0.9146341463414634,2.378048780487805,0.46337890625,0.4453125,0.78564453125,16.05,29.549999999999997,49.5
-1.1585365853658538,1.1585365853658538,0.6097560975609757,0.46630859375,0.43798828125,0.7900390625,15.45,29.7,49.65
-2.378048780487805,1.6463414634146343,0.12195121951219513,0.4580078125,0.4423828125,0.80712890625,16.95,28.65,48.9
0.0,1.4634146341463417,0.30487804878048785,0.45751953125,0.44677734375,0.80517578125,16.65,29.7,49.35
-0.426829268292683,1.1585365853658538,0.6097560975609757,0.45751953125,0.443359375,0.7958984375,16.8,29.849999999999998,50.25
-1.1585365853658538,-0.1829268292682927,1.2195121951219514,0.46142578125,0.43212890625,0.80224609375,16.349999999999998,29.549999999999997,49.5
0.9756097560975611,3.5975609756097566,-1.0975609756097562,0.44189453125,0.439453125,0.80078125,17.849999999999998,29.549999999999997,48.75
2.9268292682926833,-1.707317073170732,0.30487804878048785,0.4599609375,0.44677734375,0.78759765625,16.8,28.05,50.25
-2.1341463414634148,1.1585365853658538,-1.0975609756097562,0.46240234375,0.4453125,0.80419921875,16.65,28.95,49.65
0.0,2.1341463414634148,-0.12195121951219513,0.45849609375,0.4423828125,0.79150390625,16.8,29.7,49.65
-1.2804878048780488,2.9268292682926833,-1.402439024390244,0.46044921875,0.44140625,0.79052734375,16.05,27.599999999999998,49.949999999999996
0.7317073170731708,0.426829268292683,1.0365853658536586,0.4541015625,0.44189453125,0.7958984375,16.95,29.7,49.35
1.0365853658536586,3.353658536585366,0.7317073170731708,0.4580078125,0.44873046875,0.79345703125,17.7,29.4,50.4
-2.378048780487805,1.1585365853658538,0.9756097560975611,0.4609375,0.44482421875,0.80712890625,17.099999999999998,28.349999999999998,49.199999999999996
0.06097560975609757,1.524390243902439,2.25609756097561,0.46044921875,0.4482421875,0.794921875,15.899999999999999,29.7,49.65
1.6463414634146343,-0.30487804878048785,-0.06097560975609757,0.466796875,0.45458984375,0.7861328125,15.6,29.549999999999997,51.0
0.12195121951219513,4.390243902439025,0.7317073170731708,0.4677734375,0.431640625,0.8037109375,15.6,28.799999999999997,48.0
-0.1829268292682927,0.0,0.5487804878048781,0.46142578125,0.453125,0.79150390625,16.349999999999998,28.349999999999998,49.5
2.5609756097560976,1.1585365853658538,-1.707317073170732,0.470703125,0.4521484375,0.791015625,16.05,28.05,50.55
-0.06097560975609757,1.0975609756097562,-0.12195121951219513,0.4619140625,0.4501953125,0.798828125,16.05,29.849999999999998,49.5
-0.30487804878048785,1.707317073170732,0.24390243902439027,0.45263671875,0.46044921875,0.7958984375,16.05,28.05,50.25
0.426829268292683,-1.1585365853658538,0.5487804878048781,0.447265625,0.43359375,0.79248046875,16.2,29.7,50.1
-3.2926829268292686,1.4634146341463417,-0.6707317073170732,0.46923828125,0.44921875,0.79248046875,16.65,28.65,49.35
0.1829268292682927,0.24390243902439027,2.073170731707317,0.45166015625,0.447265625,0.791015625,15.6,29.849999999999998,49.5
-0.9146341463414634,1.2804878048780488,-2.0121951219512195,0.46826171875,0.439453125,0.80712890625,16.8,30.75,49.949999999999996
-0.426829268292683,-0.1829268292682927,-0.48780487804878053,0.451171875,0.43896484375,0.78173828125,17.099999999999998,30.299999999999997,49.5
0.6097560975609757,1.2804878048780488,-2.7439024390243905,0.46435546875,0.43603515625,0.78076171875,15.899999999999999,28.65,49.35
-1.1585365853658538,1.524390243902439,-0.6097560975609757,0.4501953125,0.43505859375,0.79052734375,16.349999999999998,29.549999999999997,50.55
0.1829268292682927,1.7682926829268295,0.7926829268292683,0.45458984375,0.44921875,0.7919921875,16.65,30.15,48.6
-0.6097560975609757,2.25609756097561,-1.1585365853658538,0.44970703125,0.44287109375,0.79443359375,17.55,28.05,49.5
1.2804878048780488,0.7926829268292683,0.0,0.4599609375,0.4404296875,0.80029296875,16.8,29.099999999999998,50.55
-2.5609756097560976,0.06097560975609757,0.30487804878048785,0.46044921875,0.4365234375,0.80029296875,16.05,29.099999999999998,49.199999999999996
-0.426829268292683,0.9146341463414634,-2.439024390243903,0.45361328125,0.439453125,0.79345703125,16.8,31.5,49.199999999999996
-1.2195121951219514,0.1829268292682927,-3.1707317073170733,0.46533203125,0.43701171875,0.8046875,16.05,28.799999999999997,50.25
1.829268292682927,0.9756097560975611,0.6097560975609757,0.45458984375,0.4501953125,0.79150390625,15.6,29.549999999999997,49.5
2.3170731707317076,2.5609756097560976,-1.1585365853658538,0.47265625,0.44384765625,0.7958984375,14.85,28.799999999999997,48.75
-1.829268292682927,3.4756097560975614,-0.1829268292682927,0.4697265625,0.4345703125,0.79443359375,15.299999999999999,28.349999999999998,49.5
-0.24390243902439027,0.9146341463414634,0.853658536585366,0.443359375,0.451171875,0.79248046875,16.8,29.849999999999998,49.949999999999996
-1.5853658536585367,1.6463414634146343,-2.3170731707317076,0.4482421875,0.43798828125,0.79638671875,17.099999999999998,29.549999999999997,49.949999999999996
-1.8902439024390245,1.1585365853658538,-1.3414634146341464,0.4609375,0.4375,0.79541015625,16.05,28.799999999999997,49.5
-1.6463414634146343,3.4756097560975614,0.06097560975609757,0.458984375,0.44384765625,0.79736328125,16.8,28.799999999999997,49.949999999999996
-0.06097560975609757,1.402439024390244,-0.06097560975609757,0.462890625,0.453125,0.79345703125,17.7,28.95,49.65
-1.402439024390244,-0.7317073170731708,0.426829268292683,0.45361328125,0.43408203125,0.80126953125,16.95,28.65,50.1
2.378048780487805,1.9512195121951221,0.6097560975609757,0.46484375,0.43896484375,0.81396484375,16.95,30.45,49.35
0.853658536585366,0.853658536585366,0.1829268292682927,0.45263671875,0.43701171875,0.7919921875,16.95,29.4,48.3
-3.048780487804878,-0.853658536585366,-2.3170731707317076,0.45166015625,0.443359375,0.7919921875,16.65,30.15,47.55
0.1829268292682927,-0.6097560975609757,0.30487804878048785,0.45703125,0.4384765625,0.8017578125,16.349999999999998,28.799999999999997,50.25
0.12195121951219513,0.1829268292682927,-0.7317073170731708,0.46435546875,0.44775390625,0.7998046875,16.8,29.549999999999997,49.949999999999996
0.6707317073170732,0.6097560975609757,-1.1585365853658538,0.46826171875,0.44580078125,0.79052734375,16.95,27.0,48.9
-2.5,1.3414634146341464,0.24390243902439027,0.4716796875,0.44287109375,0.79931640625,16.95,31.2,49.35
-1.402439024390244,0.3658536585365854,0.426829268292683,0.4482421875,0.44677734375,0.79443359375,16.95,30.15,49.35
-0.7317073170731708,0.7926829268292683,3.048780487804878,0.458984375,0.43798828125,0.79931640625,16.2,30.15,49.35
1.3414634146341464,0.48780487804878053,-0.1829268292682927,0.4560546875,0.451171875,0.79833984375,16.349999999999998,29.549999999999997,49.949999999999996
0.9756097560975611,0.7317073170731708,-0.9146341463414634,0.4580078125,0.44775390625,0.80517578125,16.2,28.65,50.1
-0.7926829268292683,0.7926829268292683,-1.1585365853658538,0.45654296875,0.44970703125,0.79638671875,18.3,29.549999999999997,48.449999999999996
1.8902439024390245,3.1097560975609757,-1.8902439024390245,0.47119140625,0.455078125,0.78759765625,16.8,29.849999999999998,48.75
-2.1951219512195124,0.12195121951219513,-1.6463414634146343,0.44384765625,0.4462890625,0.7978515625,15.899999999999999,27.75,49.35
-0.6097560975609757,1.707317073170732,-0.12195121951219513,0.4521484375,0.4423828125,0.79296875,16.2,30.15,49.65
1.8902439024390245,-1.6463414634146343,-3.048780487804878,0.466796875,0.439453125,0.7939453125,16.349999999999998,29.849999999999998,50.55
-0.7926829268292683,2.9268292682926833,-1.2195121951219514,0.43994140625,0.4482421875,0.798828125,16.8,29.849999999999998,49.199999999999996
0.5487804878048781,0.5487804878048781,-0.24390243902439027,0.4443359375,0.4365234375,0.80517578125,15.6,29.549999999999997,49.949999999999996
1.0975609756097562,1.2804878048780488,-0.1829268292682927,0.4599609375,0.43310546875,0.806640625,16.349999999999998,28.05,49.949999999999996
2.439024390243903,-0.30487804878048785,-1.0975609756097562,0.45751953125,0.4462890625,0.79443359375,16.65,28.2,48.6
-0.30487804878048785,1.8902439024390245,-0.426829268292683,0.45166015625,0.4443359375,0.78955078125,15.6,28.05,50.55
2.073170731707317,0.48780487804878053,1.8902439024390245,0.46044921875,0.4365234375,0.7958984375,16.95,29.4,49.65
-2.0121951219512195,1.7682926829268295,-2.5609756097560976,0.45556640625,0.4501953125,0.79541015625,15.6,28.349999999999998,49.5
0.7317073170731708,0.6707317073170732,2.0121951219512195,0.4501953125,0.435546875,0.791015625,16.8,29.849999999999998,50.25
-1.2195121951219514,-0.06097560975609757,1.6463414634146343,0.45556640625,0.42822265625,0.79931640625,16.2,28.65,49.65
-1.4634146341463417,2.8658536585365857,-1.4634146341463417,0.46435546875,0.44189453125,0.80078125,16.95,29.4,48.9
1.4634146341463417,0.24390243902439027,-1.8902439024390245,0.45166015625,0.4384765625,0.7919921875,16.349999999999998,28.349999999999998,49.949999999999996
-0.24390243902439027,2.1341463414634148,-0.1829268292682927,0.45458984375,0.43505859375,0.80859375,16.349999999999998,28.799999999999997,49.199999999999996
2.0121951219512195,0.9756097560975611,-0.853658536585366,0.4638671875,0.4404296875,0.79052734375,15.899999999999999,30.15,49.35
0.9146341463414634,-0.30487804878048785,1.2195121951219514,0.451171875,0.44287109375,0.7919921875,17.099999999999998,28.05,50.25
-0.24390243902439027,0.5487804878048781,-1.8902439024390245,0.45361328125,0.435546875,0.7919921875,17.099999999999998,29.099999999999998,48.449999999999996
0.426829268292683,0.3658536585365854,-0.5487804878048781,0.45556640625,0.4453125,0.79736328125,16.65,28.95,50.4
-1.5853658536585367,0.9146341463414634,-0.24390243902439027,0.44921875,0.443359375,0.7978515625,16.95,30.15,49.65
-1.9512195121951221,1.5853658536585367,0.5487804878048781,0.4638671875,0.43505859375,0.79833984375,17.099999999999998,30.299999999999997,49.199999999999996
-0.7317073170731708,-0.1829268292682927,0.0,0.4658203125,0.43896484375,0.7900390625,15.6,28.799999999999997,49.949999999999996
0.3658536585365854,0.24390243902439027,0.7317073170731708,0.45751953125,0.44140625,0.80126953125,16.8,29.099999999999998,48.0
-1.0975609756097562,0.9146341463414634,1.3414634146341464,0.46044921875,0.4384765625,0.80517578125,16.65,28.65,50.85
1.9512195121951221,0.5487804878048781,-2.378048780487805,0.4697265625,0.44482421875,0.79541015625,16.2,28.2,48.6
-0.48780487804878053,1.1585365853658538,1.6463414634146343,0.462890625,0.44677734375,0.8017578125,15.899999999999999,29.4,49.65
1.6463414634146343,-1.524390243902439,-1.4634146341463417,0.453125,0.44287109375,0.794921875,16.349999999999998,29.549999999999997,51.3
2.5,-0.06097560975609757,0.426829268292683,0.4521484375,0.4501953125,0.78955078125,16.65,28.65,50.85
-1.6463414634146343,0.5487804878048781,0.9756097560975611,0.45703125,0.43408203125,0.7919921875,17.099999999999998,28.799999999999997,49.5
0.426829268292683,2.1341463414634148,2.1951219512195124,0.44482421875,0.43701171875,0.8056640625,17.4,29.4,49.35
-2.9268292682926833,3.536585365853659,0.06097560975609757,0.47119140625,0.4541015625,0.7978515625,16.349999999999998,28.349999999999998,50.25
0.5487804878048781,1.0975609756097562,0.7317073170731708,0.46533203125,0.447265625,0.79833984375,15.899999999999999,28.65,49.35
-2.804878048780488,1.524390243902439,-0.12195121951219513,0.46533203125,0.44091796875,0.79833984375,16.05,28.799999999999997,49.5
-1.2804878048780488,1.0365853658536586,-1.8902439024390245,0.44677734375,0.451171875,0.794921875,15.899999999999999,28.95,49.35
0.426829268292683,-0.30487804878048785,-0.12195121951219513,0.46728515625,0.44580078125,0.7998046875,16.349999999999998,28.05,49.949999999999996
2.0121951219512195,0.3658536585365854,0.0,0.45166015625,0.43994140625,0.79248046875,18.3,29.849999999999998,49.199999999999996
1.5853658536585367,1.9512195121951221,-2.8658536585365857,0.46240234375,0.43994140625,0.794921875,16.65,29.4,48.9
-0.9146341463414634,0.6097560975609757,0.853658536585366,0.46435546875,0.45166015625,0.79150390625,16.8,29.099999999999998,50.55
1.6463414634146343,-1.8902439024390245,-1.8902439024390245,0.47509765625,0.447265625,0.783203125,16.8,29.099999999999998,48.449999999999996
-0.24390243902439027,1.829268292682927,1.4634146341463417,0.46875,0.44189453125,0.79248046875,17.099999999999998,27.3,49.949999999999996
-1.402439024390244,1.524390243902439,1.1585365853658538,0.470703125,0.4482421875,0.7939453125,16.349999999999998,28.799999999999997,47.699999999999996
-0.30487804878048785,1.0975609756097562,0.426829268292683,0.45703125,0.44677734375,0.794921875,16.95,27.75,49.65
0.426829268292683,2.5609756097560976,1.0975609756097562,0.45703125,0.4423828125,0.7958984375,17.4,29.4,51.449999999999996
1.3414634146341464,-1.0365853658536586,-0.7317073170731708,0.455078125,0.43798828125,0.79541015625,17.099999999999998,29.099999999999998,50.25
-1.4634146341463417,0.7317073170731708,-1.6463414634146343,0.4697265625,0.439453125,0.80224609375,17.4,27.75,50.1
2.682926829268293,-0.30487804878048785,-0.7317073170731708,0.45068359375,0.4404296875,0.79443359375,17.849999999999998,29.549999999999997,50.55
-1.4634146341463417,-0.24390243902439027,0.7926829268292683,0.45703125,0.4580078125,0.78515625,16.65,29.4,51.15
0.30487804878048785,-1.402439024390244,-1.3414634146341464,0.45556640625,0.44970703125,0.79150390625,17.099999999999998,28.349999999999998,49.199999999999996
-3.7195121951219514,1.2804878048780488,0.9146341463414634,0.458984375,0.453125,0.80859375,15.899999999999999,29.7,49.65
0.48780487804878053,2.5,-0.06097560975609757,0.4599609375,0.44287109375,0.78662109375,16.2,30.45,49.35
2.439024390243903,0.6097560975609757,0.30487804878048785,0.45849609375,0.44482421875,0.79443359375,16.95,29.7,50.1
-1.0365853658536586,-0.9756097560975611,1.2195121951219514,0.45654296875,0.44873046875,0.79150390625,15.6,29.099999999999998,50.25
2.0121951219512195,0.853658536585366,-0.12195121951219513,0.4677734375,0.43701171875,0.7822265625,17.099999999999998,28.349999999999998,49.199999999999996
0.9146341463414634,0.12195121951219513,-0.9756097560975611,0.4501953125,0.43212890625,0.802734375,16.65,29.4,50.1
-0.30487804878048785,2.25609756097561,-0.12195121951219513,0.46533203125,0.44580078125,0.796875,17.4,28.95,49.65
-0.7926829268292683,2.8658536585365857,-1.1585365853658538,0.45458984375,0.42724609375,0.78857421875,15.6,29.099999999999998,48.75
0.24390243902439027,2.5,0.30487804878048785,0.46484375,0.44873046875,0.7890625,16.05,29.849999999999998,51.0
-0.6707317073170732,-0.426829268292683,-1.2195121951219514,0.46435546875,0.43408203125,0.80322265625,15.45,28.65,49.65
-1.1585365853658538,0.48780487804878053,-1.0975609756097562,0.4521484375,0.43896484375,0.796875,16.05,28.349999999999998,50.25
0.30487804878048785,-0.48780487804878053,-1.524390243902439,0.4609375,0.43212890625,0.8115234375,17.7,29.4,50.1
-1.5853658536585367,2.5,-1.2804878048780488,0.46044921875,0.44091796875,0.798828125,17.099999999999998,29.849999999999998,50.55
3.7195121951219514,2.073170731707317,-0.06097560975609757,0.47265625,0.43896484375,0.798828125,15.6,29.549999999999997,48.75
-0.5487804878048781,-0.426829268292683,-1.402439024390244,0.466796875,0.43994140625,0.79736328125,17.4,30.15,50.1
-0.12195121951219513,1.2804878048780488,-1.707317073170732,0.47314453125,0.44140625,0.7880859375,15.6,28.349999999999998,49.5
-0.12195121951219513,-0.06097560975609757,0.12195121951219513,0.47607421875,0.4375,0.7880859375,16.349999999999998,29.549999999999997,49.5
-0.06097560975609757,1.3414634146341464,0.1829268292682927,0.44384765625,0.44189453125,0.794921875,16.05,29.099999999999998,51.0
0.426829268292683,0.6097560975609757,-2.378048780487805,0.451171875,0.44287109375,0.79443359375,14.7,28.2,48.9
-1.829268292682927,2.5609756097560976,-2.8658536585365857,0.4580078125,0.4423828125,0.80224609375,15.6,29.849999999999998,50.55
-0.6097560975609757,1.2804878048780488,1.0975609756097562,0.44677734375,0.45361328125,0.80224609375,18.3,28.349999999999998,49.949999999999996
-1.9512195121951221,0.0,-1.2195121951219514,0.46630859375,0.43994140625,0.7919921875,16.2,28.2,49.35
1.9512195121951221,1.2804878048780488,-0.24390243902439027,0.46240234375,0.43798828125,0.80322265625,14.85,29.099999999999998,49.949999999999996
0.12195121951219513,3.7195121951219514,1.402439024390244,0.45751953125,0.44677734375,0.80517578125,16.05,29.849999999999998,49.949999999999996
0.7926829268292683,-0.48780487804878053,-0.853658536585366,0.45458984375,0.44677734375,0.779296875,16.05,29.099999999999998,49.949999999999996
-0.426829268292683,0.06097560975609757,-4.085365853658537,0.47314453125,0.44482421875,0.80615234375,16.95,28.95,49.35
-2.6219512195121952,-1.2804878048780488,0.426829268292683,0.46533203125,0.4521484375,0.7890625,15.6,29.849999999999998,49.5
-0.48780487804878053,0.06097560975609757,-0.24390243902439027,0.455078125,0.44384765625,0.80908203125,16.95,30.15,50.4
-1.1585365853658538,0.3658536585365854,-1.6463414634146343,0.46533203125,0.45166015625,0.78466796875,16.349999999999998,29.549999999999997,50.25
-0.6097560975609757,0.853658536585366,-0.426829268292683,0.46484375,0.45068359375,0.7939453125,16.349999999999998,29.549999999999997,48.449999999999996
-2.073170731707317,0.3658536585365854,-1.707317073170732,0.4560546875,0.4541015625,0.79150390625,16.65,27.75,49.65
-0.6097560975609757,-0.1829268292682927,-0.24390243902439027,0.4697265625,0.4453125,0.798828125,16.65,28.2,48.9
-1.0975609756097562,0.6097560975609757,0.0,0.45166015625,0.439453125,0.802734375,16.95,28.95,48.9
0.7926829268292683,1.9512195121951221,1.2804878048780488,0.4560546875,0.46240234375,0.7998046875,16.8,29.099999999999998,48.449999999999996
1.2195121951219514,2.5,1.2804878048780488,0.45556640625,0.4521484375,0.80615234375,16.65,30.45,49.35
1.707317073170732,-0.426829268292683,1.2195121951219514,0.458984375,0.44482421875,0.79638671875,17.4,29.4,50.4
-0.5487804878048781,0.426829268292683,-0.24390243902439027,0.4541015625,0.44775390625,0.79296875,17.4,29.7,48.9
-0.7317073170731708,0.7317073170731708,-1.4634146341463417,0.46728515625,0.44482421875,0.79296875,16.95,28.2,48.9
1.3414634146341464,2.0121951219512195,0.12195121951219513,0.4609375,0.44921875,0.80712890625,16.2,29.4,49.65
-0.30487804878048785,-0.06097560975609757,-1.7682926829268295,0.455078125,0.44091796875,0.7841796875,16.65,29.7,48.9
0.7317073170731708,-0.30487804878048785,-0.6097560975609757,0.45751953125,0.43603515625,0.8037109375,15.899999999999999,29.7,49.35
-0.853658536585366,0.7926829268292683,0.1829268292682927,0.4599609375,0.43603515625,0.80126953125,17.849999999999998,28.799999999999997,49.199999999999996
2.378048780487805,0.5487804878048781,-0.3658536585365854,0.45654296875,0.43798828125,0.7978515625,15.899999999999999,28.65,49.35
-0.6707317073170732,-0.06097560975609757,-2.25609756097561,0.45556640625,0.431640625,0.7919921875,17.55,29.849999999999998,49.5
1.829268292682927,1.4634146341463417,0.1829268292682927,0.44970703125,0.4365234375,0.78955078125,16.2,28.95,50.4
-0.06097560975609757,-0.853658536585366,-1.8902439024390245,0.46923828125,0.44873046875,0.80078125,16.65,28.95,49.65
-0.9756097560975611,3.5975609756097566,1.5853658536585367,0.4423828125,0.44384765625,0.78955078125,17.099999999999998,28.799999999999997,49.5
-1.402439024390244,2.073170731707317,-0.426829268292683,0.4609375,0.447265625,0.79736328125,16.8,29.549999999999997,48.449999999999996
0.30487804878048785,1.707317073170732,-3.1707317073170733,0.46923828125,0.44384765625,0.7998046875,15.299999999999999,29.099999999999998,49.5
-0.1829268292682927,2.073170731707317,-1.6463414634146343,0.45166015625,0.44775390625,0.80078125,15.6,29.549999999999997,49.199999999999996
0.12195121951219513,1.0365853658536586,-2.073170731707317,0.451171875,0.4375,0.79345703125,17.4,28.2,50.1
3.658536585365854,1.8902439024390245,1.0975609756097562,0.46484375,0.44921875,0.7841796875,16.95,30.15,50.1
1.5853658536585367,0.7926829268292683,-0.06097560975609757,0.45361328125,0.43505859375,0.79638671875,15.6,28.349999999999998,49.949999999999996
4.024390243902439,0.48780487804878053,1.2195121951219514,0.466796875,0.4375,0.79443359375,16.2,28.95,48.3
-0.853658536585366,-0.24390243902439027,-0.426829268292683,0.46826171875,0.44140625,0.79443359375,16.65,27.75,48.9
-1.2195121951219514,2.439024390243903,-0.06097560975609757,0.4677734375,0.451171875,0.7880859375,16.8,28.799999999999997,49.5
-0.06097560975609757,1.4634146341463417,2.682926829268293,0.453125,0.43408203125,0.79052734375,16.05,28.349999999999998,50.25
-1.8902439024390245,2.1951219512195124,-0.24390243902439027,0.45458984375,0.443359375,0.80224609375,16.95,28.95,50.1
0.0,0.853658536585366,-0.426829268292683,0.4521484375,0.43896484375,0.79248046875,16.65,30.45,48.6
0.24390243902439027,2.378048780487805,0.9146341463414634,0.46435546875,0.4326171875,0.79541015625,17.4,28.95,49.35
0.06097560975609757,0.24390243902439027,-0.6707317073170732,0.4599609375,0.4580078125,0.80419921875,16.349999999999998,29.099999999999998,49.5
-1.9512195121951221,2.8658536585365857,-1.0365853658536586,0.4619140625,0.44677734375,0.791015625,16.65,28.349999999999998,48.75
2.6219512195121952,1.5853658536585367,1.0365853658536586,0.44921875,0.44677734375,0.79345703125,16.2,30.9,48.6
1.707317073170732,-1.4634146341463417,-0.7317073170731708,0.46728515625,0.4521484375,0.79638671875,16.05,29.849999999999998,49.199999999999996
-0.7926829268292683,2.987804878048781,-0.24390243902439027,0.45361328125,0.44189453125,0.79296875,16.05,29.099999999999998,49.199999999999996
1.8902439024390245,1.0975609756097562,-0.5487804878048781,0.4521484375,0.435546875,0.79345703125,16.65,29.7,49.65
-1.402439024390244,-0.7317073170731708,0.426829268292683,0.46435546875,0.44921875,0.80078125,16.05,29.549999999999997,50.25
0.3658536585365854,2.439024390243903,-0.48780487804878053,0.4599609375,0.4404296875,0.80419921875,14.7,28.95,50.1
-1.5853658536585367,4.634146341463415,-0.7317073170731708,0.4599609375,0.447265625,0.787109375,17.099999999999998,29.849999999999998,49.5
-0.24390243902439027,1.6463414634146343,-0.12195121951219513,0.46142578125,0.44384765625,0.78955078125,16.95,28.95,49.65
1.5853658536585367,1.2195121951219514,0.7317073170731708,0.45849609375,0.44287109375,0.79345703125,17.55,29.549999999999997,49.199999999999996
-0.12195121951219513,2.1341463414634148,-0.7926829268292683,0.4638671875,0.44970703125,0.7900390625,16.05,28.799999999999997,50.25
1.0365853658536586,1.1585365853658538,0.06097560975609757,0.458984375,0.44580078125,0.7958984375,15.899999999999999,28.65,48.9
-1.402439024390244,1.8902439024390245,-1.7682926829268295,0.45361328125,0.458984375,0.7958984375,16.8,30.75,50.25
1.3414634146341464,1.2804878048780488,-2.1951219512195124,0.45361328125,0.447265625,0.796875,16.65,28.95,50.1
-2.9268292682926833,2.25609756097561,0.24390243902439027,0.44580078125,0.44140625,0.802734375,16.65,28.65,49.65
1.9512195121951221,-0.1829268292682927,-0.12195121951219513,0.458984375,0.4462890625,0.79052734375,17.4,29.4,49.65
-1.0365853658536586,-0.30487804878048785,1.5853658536585367,0.46240234375,0.43310546875,0.7978515625,17.099999999999998,28.05,50.25
1.1585365853658538,1.1585365853658538,0.853658536585366,0.46923828125,0.45458984375,0.78369140625,17.4,28.95,49.65
0.9756097560975611,2.1341463414634148,-0.5487804878048781,0.4541015625,0.43310546875,0.79296875,15.899999999999999,28.95,49.65
-1.1585365853658538,-0.426829268292683,3.658536585365854,0.46044921875,0.4462890625,0.80029296875,17.099999999999998,30.75,50.1
0.0,1.4634146341463417,1.8902439024390245,0.45654296875,0.44287109375,0.78564453125,15.899999999999999,29.7,49.35
1.524390243902439,0.853658536585366,1.1585365853658538,0.4638671875,0.43310546875,0.794921875,16.8,29.549999999999997,49.199999999999996
-0.30487804878048785,0.24390243902439027,-0.24390243902439027,0.46826171875,0.4423828125,0.80517578125,15.899999999999999,28.2,49.65
-0.48780487804878053,2.9268292682926833,2.5609756097560976,0.4560546875,0.45947265625,0.7890625,15.299999999999999,29.549999999999997,48.449999999999996
0.7926829268292683,0.1829268292682927,-0.7926829268292683,0.43994140625,0.4326171875,0.79736328125,16.05,29.849999999999998,49.5
-1.0365853658536586,2.5609756097560976,2.25609756097561,0.47216796875,0.447265625,0.7939453125,14.7,30.45,49.65
3.1097560975609757,0.1829268292682927,2.073170731707317,0.4599609375,0.44775390625,0.7861328125,14.85,28.349999999999998,49.949999999999996
-0.24390243902439027,3.8414634146341466,-1.0365853658536586,0.46484375,0.44482421875,0.796875,18.599999999999998,28.349999999999998,50.25
-2.5609756097560976,3.231707317073171,-1.9512195121951221,0.46142578125,0.4423828125,0.794921875,16.65,28.65,49.35
1.829268292682927,1.6463414634146343,-0.853658536585366,0.4619140625,0.4384765625,0.79345703125,16.349999999999998,29.549999999999997,50.55
-0.1829268292682927,0.6097560975609757,0.7926829268292683,0.458984375,0.4443359375,0.7958984375,17.55,29.099999999999998,50.55
1.9512195121951221,0.5487804878048781,0.1829268292682927,0.44873046875,0.44775390625,0.79443359375,16.2,28.65,50.1
-0.30487804878048785,-0.12195121951219513,-0.48780487804878053,0.4560546875,0.45703125,0.798828125,17.099999999999998,29.849999999999998,48.449999999999996
-1.829268292682927,1.8902439024390245,1.3414634146341464,0.455078125,0.43408203125,0.796875,17.099999999999998,29.099999999999998,48.449999999999996
-1.829268292682927,1.1585365853658538,-0.853658536585366,0.45654296875,0.43896484375,0.79638671875,17.55,28.349999999999998,50.25
0.5487804878048781,0.3658536585365854,-0.1829268292682927,0.45556640625,0.4326171875,0.80615234375,16.05,28.799999999999997,49.949999999999996
-0.1829268292682927,-0.24390243902439027,-0.5487804878048781,0.458984375,0.4384765625,0.80859375,16.8,29.849999999999998,48.75
-1.2804878048780488,0.853658536585366,0.06097560975609757,0.4609375,0.44873046875,0.80126953125,16.2,30.15,50.1
3.9024390243902443,-0.1829268292682927,0.6707317073170732,0.46044921875,0.4375,0.787109375,15.899999999999999,28.95,49.35
-0.9146341463414634,-0.3658536585365854,0.5487804878048781,0.455078125,0.45263671875,0.79248046875,16.05,29.099999999999998,48.449999999999996
1.4634146341463417,1.0365853658536586,0.1829268292682927,0.45361328125,0.447265625,0.78759765625,17.7,27.75,50.4
-1.8902439024390245,2.1341463414634148,-0.24390243902439027,0.45947265625,0.45068359375,0.8017578125,15.45,28.95,49.35
-1.6463414634146343,-0.9146341463414634,0.7926829268292683,0.4638671875,0.43701171875,0.80615234375,17.4,29.7,49.65
0.24390243902439027,1.2804878048780488,2.0121951219512195,0.45703125,0.45068359375,0.79736328125,17.7,28.65,48.9
0.12195121951219513,1.524390243902439,0.1829268292682927,0.462890625,0.4453125,0.806640625,16.349999999999998,28.349999999999998,49.199999999999996
-1.9512195121951221,-0.7926829268292683,-0.6097560975609757,0.45703125,0.45068359375,0.80224609375,16.349999999999998,27.599999999999998,48.449999999999996
0.0,0.7926829268292683,-0.7317073170731708,0.478515625,0.45166015625,0.80615234375,17.849999999999998,29.549999999999997,49.949999999999996
-1.3414634146341464,-0.3658536585365854,-2.804878048780488,0.45654296875,0.4375,0.8017578125,16.349999999999998,29.099999999999998,49.199999999999996
1.9512195121951221,0.1829268292682927,1.0975609756097562,0.46826171875,0.4482421875,0.80810546875,16.95,28.95,49.65
1.4634146341463417,0.9756097560975611,0.0,0.46044921875,0.4423828125,0.79541015625,17.099999999999998,29.099999999999998,49.949999999999996
0.1829268292682927,1.6463414634146343,-0.7926829268292683,0.45263671875,0.44384765625,0.79638671875,18.45,29.4,50.1
-2.439024390243903,1.7682926829268295,-1.2195121951219514,0.46142578125,0.44775390625,0.7802734375,16.2,31.2,50.1
0.24390243902439027,0.7317073170731708,-0.5487804878048781,0.46435546875,0.44775390625,0.79443359375,17.099999999999998,28.799999999999997,49.199999999999996
-4.024390243902439,0.853658536585366,2.073170731707317,0.4658203125,0.443359375,0.79833984375,16.2,28.95,51.15
2.25609756097561,2.987804878048781,0.6707317073170732,0.45947265625,0.44384765625,0.7978515625,18.0,29.4,49.65
0.426829268292683,0.5487804878048781,-2.5609756097560976,0.46630859375,0.435546875,0.7900390625,16.2,27.45,49.35
-0.30487804878048785,-0.7317073170731708,-2.1341463414634148,0.4609375,0.43603515625,0.7900390625,16.65,29.7,48.9
0.9756097560975611,2.6219512195121952,-2.3170731707317076,0.451171875,0.4404296875,0.7978515625,16.95,29.4,50.1
0.7926829268292683,0.9146341463414634,0.12195121951219513,0.458984375,0.45361328125,0.7958984375,14.399999999999999,29.7,49.35
-0.30487804878048785,0.6097560975609757,0.30487804878048785,0.45849609375,0.43798828125,0.79541015625,18.3,29.099999999999998,49.5
-3.353658536585366,1.402439024390244,-0.30487804878048785,0.4736328125,0.44287109375,0.80615234375,16.2,28.95,50.1
1.6463414634146343,0.7926829268292683,-0.9756097560975611,0.44482421875,0.451171875,0.8017578125,17.55,29.099999999999998,49.5
-2.378048780487805,1.707317073170732,-1.9512195121951221,0.4638671875,0.44580078125,0.8017578125,16.65,29.4,48.9
0.3658536585365854,1.707317073170732,-0.24390243902439027,0.458984375,0.44873046875,0.80224609375,17.099999999999998,28.05,49.949999999999996
-0.48780487804878053,1.0365853658536586,-1.6463414634146343,0.46728515625,0.4345703125,0.80419921875,16.05,28.05,50.55
0.9756097560975611,1.3414634146341464,0.24390243902439027,0.455078125,0.4375,0.79541015625,16.8,29.099999999999998,48.75
1.7682926829268295,0.426829268292683,-0.426829268292683,0.4482421875,0.43505859375,0.7998046875,14.7,29.4,49.65
-1.829268292682927,0.12195121951219513,-1.5853658536585367,0.46044921875,0.4384765625,0.79541015625,16.8,29.549999999999997,49.199999999999996
-0.6097560975609757,1.0365853658536586,0.6707317073170732,0.46630859375,0.4423828125,0.79638671875,14.85,28.799999999999997,50.25
-1.1585365853658538,-1.0365853658536586,-1.7682926829268295,0.45654296875,0.4501953125,0.79345703125,16.95,28.95,48.9
-0.7317073170731708,-0.48780487804878053,-1.524390243902439,0.44482421875,0.44921875,0.79541015625,15.899999999999999,28.2,48.9
-1.707317073170732,3.2926829268292686,-1.707317073170732,0.45361328125,0.439453125,0.80126953125,16.8,29.849999999999998,50.25
1.8902439024390245,1.0975609756097562,0.7926829268292683,0.4541015625,0.43701171875,0.79736328125,15.899999999999999,28.65,51.15
-1.9512195121951221,0.30487804878048785,1.2804878048780488,0.4599609375,0.4423828125,0.80078125,17.7,28.65,49.35
-1.4634146341463417,0.3658536585365854,0.6707317073170732,0.4697265625,0.4560546875,0.79638671875,17.4,28.65,50.1
1.524390243902439,0.5487804878048781,-0.9756097560975611,0.4697265625,0.4443359375,0.79638671875,15.899999999999999,28.95,49.35
-1.5853658536585367,-0.30487804878048785,0.12195121951219513,0.45361328125,0.4482421875,0.78955078125,16.2,30.15,49.35
1.8902439024390245,2.439024390243903,-1.2804878048780488,0.4716796875,0.44384765625,0.79736328125,16.349999999999998,29.549999999999997,48.75
-1.4634146341463417,-0.426829268292683,-0.1829268292682927,0.45458984375,0.44091796875,0.78662109375,16.95,30.15,49.65
-0.12195121951219513,3.2926829268292686,-0.9146341463414634,0.45263671875,0.4482421875,0.7822265625,16.65,27.45,48.3
0.24390243902439027,-0.853658536585366,-0.9146341463414634,0.46875,0.45068359375,0.79150390625,16.95,29.7,48.6
-2.0121951219512195,0.7926829268292683,1.707317073170732,0.4697265625,0.44775390625,0.798828125,18.3,28.05,48.0
0.12195121951219513,1.3414634146341464,-1.0975609756097562,0.4521484375,0.4404296875,0.796875,16.05,28.349999999999998,49.5
0.06097560975609757,1.2804878048780488,0.30487804878048785,0.453125,0.43408203125,0.78466796875,16.2,30.15,50.1
0.3658536585365854,-0.3658536585365854,0.426829268292683,0.458984375,0.44189453125,0.8017578125,16.349999999999998,28.349999999999998,48.449999999999996
-2.1341463414634148,2.9268292682926833,-1.1585365853658538,0.4521484375,0.45263671875,0.80078125,16.05,28.799999999999997,49.949999999999996
2.3170731707317076,2.0121951219512195,-0.853658536585366,0.4521484375,0.43505859375,0.798828125,16.05,28.799999999999997,50.25
1.2195121951219514,1.6463414634146343,2.1951219512195124,0.46484375,0.44677734375,0.79345703125,17.099999999999998,29.549999999999997,49.949999999999996
-1.3414634146341464,1.1585365853658538,0.853658536585366,0.4482421875,0.44970703125,0.79296875,17.099999999999998,29.099999999999998,50.55
-1.829268292682927,2.3170731707317076,0.6097560975609757,0.4580078125,0.44287109375,0.8046875,16.65,29.7,48.9
-2.3170731707317076,1.402439024390244,0.24390243902439027,0.44482421875,0.4462890625,0.81103515625,15.899999999999999,30.15,49.65
0.1829268292682927,1.829268292682927,-1.524390243902439,0.44970703125,0.44482421875,0.79345703125,16.65,29.7,47.85
-0.12195121951219513,1.4634146341463417,-0.06097560975609757,0.44921875,0.43310546875,0.80322265625,16.05,28.799999999999997,49.5
0.06097560975609757,0.853658536585366,-1.6463414634146343,0.4609375,0.44189453125,0.78955078125,17.099999999999998,29.099999999999998,49.5
2.0121951219512195,-0.9756097560975611,-0.12195121951219513,0.46435546875,0.44921875,0.80908203125,16.8,26.55,48.449999999999996
2.987804878048781,-0.30487804878048785,1.402439024390244,0.4482421875,0.4423828125,0.7890625,15.899999999999999,28.95,50.1
1.2804878048780488,1.402439024390244,-1.6463414634146343,0.45947265625,0.43603515625,0.796875,15.899999999999999,29.4,48.3
-1.5853658536585367,2.3170731707317076,1.7682926829268295,0.4658203125,0.45556640625,0.7890625,15.6,28.05,49.949999999999996
1.6463414634146343,2.987804878048781,-0.06097560975609757,0.4580078125,0.44580078125,0.79541015625,15.6,27.599999999999998,49.949999999999996
-4.146341463414634,1.8902439024390245,-0.24390243902439027,0.46240234375,0.453125,0.7958984375,17.7,30.15,49.65
-2.5,0.3658536585365854,0.3658536585365854,0.462890625,0.44140625,0.79296875,17.099999999999998,29.099999999999998,50.55
-0.9756097560975611,-0.06097560975609757,1.5853658536585367,0.45263671875,0.43603515625,0.79443359375,15.149999999999999,29.7,49.65
0.9146341463414634,1.5853658536585367,-1.5853658536585367,0.453125,0.431640625,0.798828125,16.2,30.15,48.6
-0.06097560975609757,1.5853658536585367,0.3658536585365854,0.453125,0.44287109375,0.8076171875,17.55,29.549999999999997,49.5
0.1829268292682927,1.2195121951219514,-0.30487804878048785,0.462890625,0.439453125,0.80322265625,16.65,28.65,49.35
0.48780487804878053,1.0975609756097562,0.12195121951219513,0.45751953125,0.4423828125,0.79541015625,16.349999999999998,28.349999999999998,49.5
-0.30487804878048785,0.7926829268292683,1.6463414634146343,0.4599609375,0.4560546875,0.78369140625,16.2,28.95,48.9
0.0,-1.1585365853658538,-1.6463414634146343,0.46630859375,0.4541015625,0.7958984375,15.6,29.099999999999998,49.199999999999996
-2.0121951219512195,1.402439024390244,0.0,0.45751953125,0.4423828125,0.79736328125,16.05,28.05,50.25
-0.24390243902439027,0.426829268292683,-0.1829268292682927,0.45947265625,0.4462890625,0.7900390625,16.8,28.799999999999997,48.75
-2.5,-0.30487804878048785,1.9512195121951221,0.462890625,0.4296875,0.8056640625,17.4,29.4,48.3
-0.5487804878048781,1.5853658536585367,1.5853658536585367,0.46337890625,0.4423828125,0.791015625,16.05,27.3,50.25
1.4634146341463417,0.3658536585365854,-0.1829268292682927,0.45849609375,0.43603515625,0.80859375,16.05,28.349999999999998,49.199999999999996
0.1829268292682927,-0.06097560975609757,-1.8902439024390245,0.453125,0.44189453125,0.7880859375,15.149999999999999,28.95,50.1
1.6463414634146343,1.9512195121951221,-1.0365853658536586,0.458984375,0.44384765625,0.80322265625,16.95,30.45,49.35
1.0975609756097562,-0.7317073170731708,2.6219512195121952,0.45703125,0.44580078125,0.79931640625,16.349999999999998,29.549999999999997,49.5
-0.426829268292683,1.6463414634146343,-1.2804878048780488,0.46826171875,0.43798828125,0.7958984375,17.7,27.75,48.6
-1.402439024390244,1.2804878048780488,-1.0365853658536586,0.46142578125,0.44677734375,0.79150390625,15.45,30.15,48.9
1.3414634146341464,1.6463414634146343,0.3658536585365854,0.45849609375,0.447265625,0.79296875,17.7,28.65,49.35
-1.7682926829268295,0.9756097560975611,0.7926829268292683,0.45703125,0.45556640625,0.81201171875,16.8,28.799999999999997,49.5
0.30487804878048785,0.12195121951219513,-1.0365853658536586,0.46728515625,0.45654296875,0.7822265625,16.95,28.95,50.1
0.30487804878048785,0.853658536585366,-1.8902439024390245,0.4541015625,0.42919921875,0.79833984375,16.2,28.65,50.1
-1.4634146341463417,0.24390243902439027,0.06097560975609757,0.46484375,0.4609375,0.7958984375,16.349999999999998,29.099999999999998,49.5
1.9512195121951221,2.073170731707317,0.7317073170731708,0.45654296875,0.4423828125,0.80859375,15.299999999999999,29.099999999999998,49.949999999999996
0.12195121951219513,0.12195121951219513,1.7682926829268295,0.45654296875,0.44580078125,0.8037109375,15.45,28.65,48.9
2.25609756097561,0.9146341463414634,2.378048780487805,0.46337890625,0.4453125,0.78564453125,16.05,29.549999999999997,49.5
-1.1585365853658538,1.1585365853658538,0.6097560975609757,0.46630859375,0.43798828125,0.7900390625,15.45,29.7,49.65
-2.378048780487805,1.6463414634146343,0.12195121951219513,0.4580078125,0.4423828125,0.80712890625,16.95,28.65,48.9
0.0,1.4634146341463417,0.30487804878048785,0.45751953125,0.44677734375,0.80517578125,16.65,29.7,49.35
-0.426829268292683,1.1585365853658538,0.6097560975609757,0.45751953125,0.443359375,0.7958984375,16.8,29.849999999999998,50.25
-1.1585365853658538,-0.1829268292682927,1.2195121951219514,0.46142578125,0.43212890625,0.80224609375,16.349999999999998,29.549999999999997,49.5
0.9756097560975611,3.5975609756097566,-1.0975609756097562,0.44189453125,0.439453125,0.80078125,17.849999999999998,29.549999999999997,48.75
2.9268292682926833,-1.707317073170732,0.30487804878048785,0.4599609375,0.44677734375,0.78759765625,16.8,28.05,50.25
-2.1341463414634148,1.1585365853658538,-1.0975609756097562,0.46240234375,0.4453125,0.80419921875,16.65,28.95,49.65
0.0,2.1341463414634148,-0.12195121951219513,0.45849609375,0.4423828125,0.79150390625,16.8,29.7,49.65
-1.2804878048780488,2.9268292682926833,-1.402439024390244,0.46044921875,0.44140625,0.79052734375,16.05,27.599999999999998,49.949999999999996
0.7317073170731708,0.426829268292683,1.0365853658536586,0.4541015625,0.44189453125,0.7958984375,16.95,29.7,49.35
1.0365853658536586,3.353658536585366,0.7317073170731708,0.4580078125,0.44873046875,0.79345703125,17.7,29.4,50.4
-2.378048780487805,1.1585365853658538,0.9756097560975611,0.4609375,0.44482421875,0.80712890625,17.099999999999998,28.349999999999998,49.199999999999996
0.06097560975609757,1.524390243902439,2.25609756097561,0.46044921875,0.4482421875,0.794921875,15.899999999999999,29.7,49.65
1.6463414634146343,-0.30487804878048785,-0.06097560975609757,0.466796875,0.45458984375,0.7861328125,15.6,29.549999999999997,51.0
0.12195121951219513,4.390243902439025,0.7317073170731708,0.4677734375,0.431640625,0.8037109375,15.6,28.799999999999997,48.0
-0.1829268292682927,0.0,0.5487804878048781,0.46142578125,0.453125,0.79150390625,16.349999999999998,28.349999999999998,49.5
2.5609756097560976,1.1585365853658538,-1.707317073170732,0.470703125,0.4521484375,0.791015625,16.05,28.05,50.55
-0.06097560975609757,1.0975609756097562,-0.12195121951219513,0.4619140625,0.4501953125,0.798828125,16.05,29.849999999999998,49.5
-0.30487804878048785,1.707317073170732,0.24390243902439027,0.45263671875,0.46044921875,0.7958984375,16.05,28.05,50.25
0.426829268292683,-1.1585365853658538,0.5487804878048781,0.447265625,0.43359375,0.79248046875,16.2,29.7,50.1
-3.2926829268292686,1.4634146341463417,-0.6707317073170732,0.46923828125,0.44921875,0.79248046875,16.65,28.65,49.35
0.1829268292682927,0.24390243902439027,2.073170731707317,0.45166015625,0.447265625,0.791015625,15.6,29.849999999999998,49.5
-0.9146341463414634,1.2804878048780488,-2.0121951219512195,0.46826171875,0.439453125,0.80712890625,16.8,30.75,49.949999999999996
-0.426829268292683,-0.1829268292682927,-0.48780487804878053,0.451171875,0.43896484375,0.78173828125,17.099999999999998,30.299999999999997,49.5
0.6097560975609757,1.2804878048780488,-2.7439024390243905,0.46435546875,0.43603515625,0.78076171875,15.899999999999999,28.65,49.35
-1.1585365853658538,1.524390243902439,-0.6097560975609757,0.4501953125,0.43505859375,0.79052734375,16.349999999999998,29.549999999999997,50.55
0.1829268292682927,1.7682926829268295,0.7926829268292683,0.45458984375,0.44921875,0.7919921875,16.65,30.15,48.6
-0.6097560975609757,2.25609756097561,-1.1585365853658538,0.44970703125,0.44287109375,0.79443359375,17.55,28.05,49.5
1.2804878048780488,0.7926829268292683,0.0,0.4599609375,0.4404296875,0.80029296875,16.8,29.099999999999998,50.55
-2.5609756097560976,0.06097560975609757,0.30487804878048785,0.46044921875,0.4365234375,0.80029296875,16.05,29.099999999999998,49.199999999999996
-0.426829268292683,0.9146341463414634,-2.439024390243903,0.45361328125,0.439453125,0.79345703125,16.8,31.5,49.199999999999996
-1.2195121951219514,0.1829268292682927,-3.1707317073170733,0.46533203125,0.43701171875,0.8046875,16.05,28.799999999999997,50.25
1.829268292682927,0.9756097560975611,0.6097560975609757,0.45458984375,0.4501953125,0.79150390625,15.6,29.549999999999997,49.5
2.3170731707317076,2.5609756097560976,-1.1585365853658538,0.47265625,0.44384765625,0.7958984375,14.85,28.799999999999997,48.75
-1.829268292682927,3.4756097560975614,-0.1829268292682927,0.4697265625,0.4345703125,0.79443359375,15.299999999999999,28.349999999999998,49.5
-0.24390243902439027,0.9146341463414634,0.853658536585366,0.443359375,0.451171875,0.79248046875,16.8,29.849999999999998,49.949999999999996
-1.5853658536585367,1.6463414634146343,-2.3170731707317076,0.4482421875,0.43798828125,0.79638671875,17.099999999999998,29.549999999999997,49.949999999999996
-1.8902439024390245,1.1585365853658538,-1.3414634146341464,0.4609375,0.4375,0.79541015625,16.05,28.799999999999997,49.5
-1.6463414634146343,3.4756097560975614,0.06097560975609757,0.458984375,0.44384765625,0.79736328125,16.8,28.799999999999997,49.949999999999996
-0.06097560975609757,1.402439024390244,-0.06097560975609757,0.462890625,0.453125,0.79345703125,17.7,28.95,49.65
-1.402439024390244,-0.7317073170731708,0.426829268292683,0.45361328125,0.43408203125,0.80126953125,16.95,28.65,50.1
2.378048780487805,1.9512195121951221,0.6097560975609757,0.46484375,0.43896484375,0.81396484375,16.95,30.45,49.35
0.853658536585366,0.853658536585366,0.1829268292682927,0.45263671875,0.43701171875,0.7919921875,16.95,29.4,48.3
-3.048780487804878,-0.853658536585366,-2.3170731707317076,0.45166015625,0.443359375,0.7919921875,16.65,30.15,47.55
0.1829268292682927,-0.6097560975609757,0.30487804878048785,0.45703125,0.4384765625,0.8017578125,16.349999999999998,28.799999999999997,50.25
0.12195121951219513,0.1829268292682927,-0.7317073170731708,0.46435546875,0.44775390625,0.7998046875,16.8,29.549999999999997,49.949999999999996
0.6707317073170732,0.6097560975609757,-1.1585365853658538,0.46826171875,0.44580078125,0.79052734375,16.95,27.0,48.9
-2.5,1.3414634146341464,0.24390243902439027,0.4716796875,0.44287109375,0.79931640625,16.95,31.2,49.35
-1.402439024390244,0.3658536585365854,0.426829268292683,0.4482421875,0.44677734375,0.79443359375,16.95,30.15,49.35
-0.7317073170731708,0.7926829268292683,3.048780487804878,0.458984375,0.43798828125,0.79931640625,16.2,30.15,49.35
1.3414634146341464,0.48780487804878053,-0.1829268292682927,0.4560546875,0.451171875,0.79833984375,16.349999999999998,29.549999999999997,49.949999999999996
0.9756097560975611,0.7317073170731708,-0.9146341463414634,0.4580078125,0.44775390625,0.80517578125,16.2,28.65,50.1
-0.7926829268292683,0.7926829268292683,-1.1585365853658538,0.45654296875,0.44970703125,0.79638671875,18.3,29.549999999999997,48.449999999999996
1.8902439024390245,3.1097560975609757,-1.8902439024390245,0.47119140625,0.455078125,0.78759765625,16.8,29.849999999999998,48.75
-2.1951219512195124,0.12195121951219513,-1.6463414634146343,0.44384765625,0.4462890625,0.7978515625,15.899999999999999,27.75,49.35
-0.6097560975609757,1.707317073170732,-0.12195121951219513,0.4521484375,0.4423828125,0.79296875,16.2,30.15,49.65
1.8902439024390245,-1.6463414634146343,-3.048780487804878,0.466796875,0.439453125,0.7939453125,16.349999999999998,29.849999999999998,50.55
-0.7926829268292683,2.9268292682926833,-1.2195121951219514,0.43994140625,0.4482421875,0.798828125,16.8,29.849999999999998,49.199999999999996
0.5487804878048781,0.5487804878048781,-0.24390243902439027,0.4443359375,0.4365234375,0.80517578125,15.6,29.549999999999997,49.949999999999996
1.0975609756097562,1.2804878048780488,-0.1829268292682927,0.4599609375,0.43310546875,0.806640625,16.349999999999998,28.05,49.949999999999996
2.439024390243903,-0.30487804878048785,-1.0975609756097562,0.45751953125,0.4462890625,0.79443359375,16.65,28.2,48.6
-0.30487804878048785,1.8902439024390245,-0.426829268292683,0.45166015625,0.4443359375,0.78955078125,15.6,28.05,50.55
2.073170731707317,0.48780487804878053,1.8902439024390245,0.46044921875,0.4365234375,0.7958984375,16.95,29.4,49.65
-2.0121951219512195,1.7682926829268295,-2.5609756097560976,0.45556640625,0.4501953125,0.79541015625,15.6,28.349999999999998,49.5
0.7317073170731708,0.6707317073170732,2.0121951219512195,0.4501953125,0.435546875,0.791015625,16.8,29.849999999999998,50.25
-1.2195121951219514,-0.06097560975609757,1.6463414634146343,0.45556640625,0.42822265625,0.79931640625,16.2,28.65,49.65
-1.4634146341463417,2.8658536585365857,-1.4634146341463417,0.46435546875,0.44189453125,0.80078125,16.95,29.4,48.9
1.4634146341463417,0.24390243902439027,-1.8902439024390245,0.45166015625,0.4384765625,0.7919921875,16.349999999999998,28.349999999999998,49.949999999999996
-0.24390243902439027,2.1341463414634148,-0.1829268292682927,0.45458984375,0.43505859375,0.80859375,16.349999999999998,28.799999999999997,49.199999999999996
2.0121951219512195,0.9756097560975611,-0.853658536585366,0.4638671875,0.4404296875,0.79052734375,15.899999999999999,30.15,49.35
0.9146341463414634,-0.30487804878048785,1.2195121951219514,0.451171875,0.44287109375,0.7919921875,17.099999999999998,28.05,50.25
-0.24390243902439027,0.5487804878048781,-1.8902439024390245,0.45361328125,0.435546875,0.7919921875,17.099999999999998,29.099999999999998,48.449999999999996
0.426829268292683,0.3658536585365854,-0.5487804878048781,0.45556640625,0.4453125,0.79736328125,16.65,28.95,50.4
-1.5853658536585367,0.9146341463414634,-0.24390243902439027,0.44921875,0.443359375,0.7978515625,16.95,30.15,49.65
-1.9512195121951221,1.5853658536585367,0.5487804878048781,0.4638671875,0.43505859375,0.79833984375,17.099999999999998,30.299999999999997,49.199999999999996
-0.7317073170731708,-0.1829268292682927,0.0,0.4658203125,0.43896484375,0.7900390625,15.6,28.799999999999997,49.949999999999996
0.3658536585365854,0.24390243902439027,0.7317073170731708,0.45751953125,0.44140625,0.80126953125,16.8,29.099999999999998,48.0
-1.0975609756097562,0.9146341463414634,1.3414634146341464,0.46044921875,0.4384765625,0.80517578125,16.65,28.65,50.85
1.9512195121951221,0.5487804878048781,-2.378048780487805,0.4697265625,0.44482421875,0.79541015625,16.2,28.2,48.6
-0.48780487804878053,1.1585365853658538,1.6463414634146343,0.462890625,0.44677734375,0.8017578125,15.899999999999999,29.4,49.65
1.6463414634146343,-1.524390243902439,-1.4634146341463417,0.453125,0.44287109375,0.794921875,16.349999999999998,29.549999999999997,51.3
2.5,-0.06097560975609757,0.426829268292683,0.4521484375,0.4501953125,0.78955078125,16.65,28.65,50.85
-1.6463414634146343,0.5487804878048781,0.9756097560975611,0.45703125,0.43408203125,0.7919921875,17.099999999999998,28.799999999999997,49.5
0.426829268292683,2.1341463414634148,2.1951219512195124,0.44482421875,0.43701171875,0.8056640625,17.4,29.4,49.35
-2.9268292682926833,3.536585365853659,0.06097560975609757,0.47119140625,0.4541015625,0.7978515625,16.349999999999998,28.349999999999998,50.25
0.5487804878048781,1.0975609756097562,0.7317073170731708,0.46533203125,0.447265625,0.79833984375,15.899999999999999,28.65,49.35
-2.804878048780488,1.524390243902439,-0.12195121951219513,0.46533203125,0.44091796875,0.79833984375,16.05,28.799999999999997,49.5
-1.2804878048780488,1.0365853658536586,-1.8902439024390245,0.44677734375,0.451171875,0.794921875,15.899999999999999,28.95,49.35
0.426829268292683,-0.30487804878048785,-0.12195121951219513,0.46728515625,0.44580078125,0.7998046875,16.349999999999998,28.05,49.949999999999996
2.0121951219512195,0.3658536585365854,0.0,0.45166015625,0.43994140625,0.79248046875,18.3,29.849999999999998,49.199999999999996
1.5853658536585367,1.9512195121951221,-2.8658536585365857,0.46240234375,0.43994140625,0.794921875,16.65,29.4,48.9
-0.9146341463414634,0.6097560975609757,0.853658536585366,0.46435546875,0.45166015625,0.79150390625,16.8,29.099999999999998,50.55
1.6463414634146343,-1.8902439024390245,-1.8902439024390245,0.47509765625,0.447265625,0.783203125,16.8,29.099999999999998,48.449999999999996
-0.24390243902439027,1.829268292682927,1.4634146341463417,0.46875,0.44189453125,0.79248046875,17.099999999999998,27.3,49.949999999999996
-1.402439024390244,1.524390243902439,1.1585365853658538,0.470703125,0.4482421875,0.7939453125,16.349999999999998,28.799999999999997,47.699999999999996
-0.30487804878048785,1.0975609756097562,0.426829268292683,0.45703125,0.44677734375,0.794921875,16.95,27.75,49.65
0.426829268292683,2.5609756097560976,1.0975609756097562,0.45703125,0.4423828125,0.7958984375,17.4,29.4,51.449999999999996
1.3414634146341464,-1.0365853658536586,-0.7317073170731708,0.455078125,0.43798828125,0.79541015625,17.099999999999998,29.099999999999998,50.25
-1.4634146341463417,0.7317073170731708,-1.6463414634146343,0.4697265625,0.439453125,0.80224609375,17.4,27.75,50.1
2.682926829268293,-0.30487804878048785,-0.7317073170731708,0.45068359375,0.4404296875,0.79443359375,17.849999999999998,29.549999999999997,50.55
-1.4634146341463417,-0.24390243902439027,0.7926829268292683,0.45703125,0.4580078125,0.78515625,16.65,29.4,51.15
0.30487804878048785,-1.402439024390244,-1.3414634146341464,0.45556640625,0.44970703125,0.79150390625,17.099999999999998,28.349999999999998,49.199999999999996
-3.7195121951219514,1.2804878048780488,0.9146341463414634,0.458984375,0.453125,0.80859375,15.899999999999999,29.7,49.65
0.48780487804878053,2.5,-0.06097560975609757,0.4599609375,0.44287109375,0.78662109375,16.2,30.45,49.35
2.439024390243903,0.6097560975609757,0.30487804878048785,0.45849609375,0.44482421875,0.79443359375,16.95,29.7,50.1
-1.0365853658536586,-0.9756097560975611,1.2195121951219514,0.45654296875,0.44873046875,0.79150390625,15.6,29.099999999999998,50.25
2.0121951219512195,0.853658536585366,-0.12195121951219513,0.4677734375,0.43701171875,0.7822265625,17.099999999999998,28.349999999999998,49.199999999999996
0.9146341463414634,0.12195121951219513,-0.9756097560975611,0.4501953125,0.43212890625,0.802734375,16.65,29.4,50.1
-0.30487804878048785,2.25609756097561,-0.12195121951219513,0.46533203125,0.44580078125,0.796875,17.4,28.95,49.65
-0.7926829268292683,2.8658536585365857,-1.1585365853658538,0.45458984375,0.42724609375,0.78857421875,15.6,29.099999999999998,48.75
0.24390243902439027,2.5,0.30487804878048785,0.46484375,0.44873046875,0.7890625,16.05,29.849999999999998,51.0
-0.6707317073170732,-0.426829268292683,-1.2195121951219514,0.46435546875,0.43408203125,0.80322265625,15.45,28.65,49.65
-1.1585365853658538,0.48780487804878053,-1.0975609756097562,0.4521484375,0.43896484375,0.796875,16.05,28.349999999999998,50.25
0.30487804878048785,-0.48780487804878053,-1.524390243902439,0.4609375,0.43212890625,0.8115234375,17.7,29.4,50.1
-1.5853658536585367,2.5,-1.2804878048780488,0.46044921875,0.44091796875,0.798828125,17.099999999999998,29.849999999999998,50.55
3.7195121951219514,2.073170731707317,-0.06097560975609757,0.47265625,0.43896484375,0.798828125,15.6,29.549999999999997,48.75
-0.5487804878048781,-0.426829268292683,-1.402439024390244,0.466796875,0.43994140625,0.79736328125,17.4,30.15,50.1
-0.12195121951219513,1.2804878048780488,-1.707317073170732,0.47314453125,0.44140625,0.7880859375,15.6,28.349999999999998,49.5
-0.12195121951219513,-0.06097560975609757,0.12195121951219513,0.47607421875,0.4375,0.7880859375,16.349999999999998,29.549999999999997,49.5
-0.06097560975609757,1.3414634146341464,0.1829268292682927,0.44384765625,0.44189453125,0.794921875,16.05,29.099999999999998,51.0
0.426829268292683,0.6097560975609757,-2.378048780487805,0.451171875,0.44287109375,0.79443359375,14.7,28.2,48.9
-1.829268292682927,2.5609756097560976,-2.8658536585365857,0.4580078125,0.4423828125,0.80224609375,15.6,29.849999999999998,50.55
-0.6097560975609757,1.2804878048780488,1.0975609756097562,0.44677734375,0.45361328125,0.80224609375,18.3,28.349999999999998,49.949999999999996
-1.9512195121951221,0.0,-1.2195121951219514,0.46630859375,0.43994140625,0.7919921875,16.2,28.2,49.35
1.9512195121951221,1.2804878048780488,-0.24390243902439027,0.46240234375,0.43798828125,0.80322265625,14.85,29.099999999999998,49.949999999999996
0.12195121951219513,3.7195121951219514,1.402439024390244,0.45751953125,0.44677734375,0.80517578125,16.05,29.849999999999998,49.949999999999996
0.7926829268292683,-0.48780487804878053,-0.853658536585366,0.45458984375,0.44677734375,0.779296875,16.05,29.099999999999998,49.949999999999996
-0.426829268292683,0.06097560975609757,-4.085365853658537,0.47314453125,0.44482421875,0.80615234375,16.95,28.95,49.35
-2.6219512195121952,-1.2804878048780488,0.426829268292683,0.46533203125,0.4521484375,0.7890625,15.6,29.849999999999998,49.5
-0.48780487804878053,0.06097560975609757,-0.24390243902439027,0.455078125,0.44384765625,0.80908203125,16.95,30.15,50.4
-1.1585365853658538,0.3658536585365854,-1.6463414634146343,0.46533203125,0.45166015625,0.78466796875,16.349999999999998,29.549999999999997,50.25
-0.6097560975609757,0.853658536585366,-0.426829268292683,0.46484375,0.45068359375,0.7939453125,16.349999999999998,29.549999999999997,48.449999999999996
-1.402439024390244,0.9756097560975611,-4.085365853658537,0.4677734375,0.45361328125,0.79931640625,17.4,28.2,48.3
0.3658536585365854,-0.6707317073170732,-1.707317073170732,0.45361328125,0.44287109375,0.80029296875,16.2,28.65,50.1
0.3658536585365854,0.9756097560975611,0.5487804878048781,0.44482421875,0.44384765625,0.79443359375,15.299999999999999,29.849999999999998,50.25
-2.073170731707317,1.2804878048780488,-0.7926829268292683,0.453125,0.4345703125,0.80419921875,16.65,29.7,50.1
0.6707317073170732,-0.06097560975609757,-0.48780487804878053,0.4501953125,0.43359375,0.7978515625,16.65,29.7,50.1
-2.7439024390243905,0.853658536585366,0.9756097560975611,0.4755859375,0.4453125,0.80078125,16.05,28.349999999999998,49.5
-1.7682926829268295,1.829268292682927,0.3658536585365854,0.45263671875,0.458984375,0.791015625,16.8,29.099999999999998,50.25
0.1829268292682927,0.24390243902439027,1.2804878048780488,0.45556640625,0.44384765625,0.80078125,16.65,30.45,50.85
-3.231707317073171,1.9512195121951221,-3.2926829268292686,0.4521484375,0.435546875,0.798828125,16.2,30.15,49.65
2.25609756097561,1.8902439024390245,-0.426829268292683,0.46240234375,0.4423828125,0.80322265625,16.349999999999998,28.349999999999998,49.5
1.9512195121951221,2.5609756097560976,-0.6097560975609757,0.47265625,0.43017578125,0.8017578125,17.55,28.05,49.5
-0.1829268292682927,-0.853658536585366,-0.9146341463414634,0.47021484375,0.44580078125,0.79736328125,15.6,28.799999999999997,49.5
0.9756097560975611,-0.5487804878048781,0.12195121951219513,0.44970703125,0.43994140625,0.79541015625,17.099999999999998,28.349999999999998,49.949999999999996
1.707317073170732,2.5,1.707317073170732,0.45849609375,0.447265625,0.7958984375,16.349999999999998,28.799999999999997,49.199999999999996
-0.12195121951219513,1.8902439024390245,-0.7926829268292683,0.46435546875,0.44580078125,0.79345703125,15.149999999999999,28.95,50.4
1.0365853658536586,3.4756097560975614,-0.6097560975609757,0.46337890625,0.43994140625,0.78955078125,17.7,28.65,48.9
0.7317073170731708,2.3170731707317076,-0.7926829268292683,0.44921875,0.43359375,0.80615234375,16.8,28.349999999999998,50.25
0.426829268292683,-0.6097560975609757,-0.30487804878048785,0.4482421875,0.447265625,0.796875,16.349999999999998,29.099999999999998,50.55
-0.5487804878048781,1.9512195121951221,-0.12195121951219513,0.46240234375,0.43798828125,0.8056640625,16.95,28.65,49.65
-0.9756097560975611,1.6463414634146343,1.4634146341463417,0.46533203125,0.4443359375,0.79638671875,16.95,30.15,50.4
4.024390243902439,0.3658536585365854,0.24390243902439027,0.45849609375,0.43408203125,0.79150390625,15.6,28.349999999999998,49.5
2.1341463414634148,1.2804878048780488,0.9756097560975611,0.45849609375,0.447265625,0.8046875,16.05,28.799999999999997,50.55
0.0,-0.30487804878048785,-0.30487804878048785,0.4443359375,0.4462890625,0.79296875,16.65,29.4,48.9
0.24390243902439027,2.1341463414634148,0.0,0.45751953125,0.44873046875,0.79833984375,16.8,28.05,49.199999999999996
-1.7682926829268295,1.7682926829268295,-0.30487804878048785,0.45703125,0.45361328125,0.78857421875,18.0,28.95,49.35
-1.0975609756097562,-0.12195121951219513,-1.5853658536585367,0.451171875,0.4365234375,0.7939453125,16.65,28.95,49.35
0.06097560975609757,0.9146341463414634,-0.426829268292683,0.4521484375,0.443359375,0.7900390625,16.65,28.95,48.9
0.426829268292683,3.2926829268292686,-0.853658536585366,0.458984375,0.44091796875,0.80029296875,16.65,30.15,50.4
-1.1585365853658538,0.30487804878048785,-3.048780487804878,0.462890625,0.45361328125,0.7900390625,15.149999999999999,27.45,50.1
3.9024390243902443,0.1829268292682927,-0.1829268292682927,0.4541015625,0.443359375,0.80224609375,17.4,28.95,49.65
-0.9756097560975611,2.804878048780488,-0.9756097560975611,0.4697265625,0.43798828125,0.8076171875,16.8,29.099999999999998,50.25
1.2804878048780488,1.9512195121951221,-1.829268292682927,0.462890625,0.44873046875,0.8037109375,16.65,29.7,49.35
0.9756097560975611,1.4634146341463417,-2.804878048780488,0.46630859375,0.4482421875,0.796875,17.4,29.4,50.1
-0.1829268292682927,0.24390243902439027,-0.12195121951219513,0.46044921875,0.43896484375,0.79931640625,16.2,29.7,50.4
0.6707317073170732,0.5487804878048781,0.853658536585366,0.4658203125,0.45068359375,0.77783203125,16.65,28.95,48.9
-1.5853658536585367,2.378048780487805,-0.9756097560975611,0.46875,0.44970703125,0.80224609375,16.05,28.799999999999997,50.55
-0.6707317073170732,1.6463414634146343,-0.6097560975609757,0.4755859375,0.4296875,0.79443359375,14.85,29.849999999999998,48.449999999999996
-0.6097560975609757,1.4634146341463417,-1.3414634146341464,0.46240234375,0.43994140625,0.80126953125,16.95,29.4,50.1
1.1585365853658538,1.8902439024390245,-0.5487804878048781,0.4697265625,0.45068359375,0.79541015625,15.299999999999999,29.549999999999997,50.55
-2.25609756097561,2.1341463414634148,0.7317073170731708,0.458984375,0.44384765625,0.80419921875,17.099999999999998,29.549999999999997,49.199999999999996
-0.5487804878048781,2.682926829268293,-1.0975609756097562,0.4580078125,0.451171875,0.794921875,16.95,28.2,49.65
0.5487804878048781,-1.524390243902439,-0.9146341463414634,0.4580078125,0.44140625,0.7978515625,15.6,29.849999999999998,49.199999999999996
-1.0975609756097562,1.0365853658536586,0.30487804878048785,0.46728515625,0.45068359375,0.80322265625,16.65,29.4,48.9
2.5,1.402439024390244,-0.6097560975609757,0.4453125,0.4384765625,0.7919921875,17.849999999999998,29.099999999999998,49.5
-1.6463414634146343,0.9756097560975611,0.9756097560975611,0.46533203125,0.4404296875,0.79833984375,17.7,29.4,50.4
-0.5487804878048781,3.7195121951219514,-0.12195121951219513,0.46240234375,0.44677734375,0.791015625,16.349999999999998,28.349999999999998,49.949999999999996
-0.24390243902439027,0.7926829268292683,1.9512195121951221,0.4423828125,0.43505859375,0.80615234375,16.65,30.9,49.65
2.0121951219512195,1.0365853658536586,1.5853658536585367,0.455078125,0.453125,0.79541015625,16.8,29.099999999999998,50.55
-0.06097560975609757,1.1585365853658538,-0.6707317073170732,0.46142578125,0.43603515625,0.8095703125,15.149999999999999,29.7,50.1
2.6219512195121952,1.2195121951219514,1.402439024390244,0.466796875,0.4404296875,0.7900390625,17.7,28.65,49.65
-0.9756097560975611,1.1585365853658538,0.0,0.45166015625,0.42919921875,0.79443359375,17.4,29.7,48.9
1.0365853658536586,1.707317073170732,-1.0975609756097562,0.4638671875,0.45068359375,0.7919921875,16.65,29.4,51.15
0.7317073170731708,2.8658536585365857,-0.3658536585365854,0.4658203125,0.443359375,0.79638671875,16.65,29.4,49.65
-1.402439024390244,-0.30487804878048785,0.06097560975609757,0.4619140625,0.46044921875,0.798828125,16.05,29.099999999999998,49.5
1.524390243902439,2.25609756097561,0.12195121951219513,0.4541015625,0.4521484375,0.78369140625,17.7,28.2,49.65
-3.780487804878049,1.4634146341463417,-1.6463414634146343,0.4541015625,0.44140625,0.8017578125,16.65,29.7,50.4
-0.30487804878048785,1.0975609756097562,0.3658536585365854,0.46337890625,0.4384765625,0.80126953125,15.45,29.7,50.4
-0.12195121951219513,-0.426829268292683,1.5853658536585367,0.45458984375,0.43212890625,0.8046875,16.8,28.05,49.5
0.6097560975609757,3.536585365853659,-1.8902439024390245,0.45068359375,0.4453125,0.802734375,17.55,28.349999999999998,50.25
2.7439024390243905,0.0,-1.1585365853658538,0.46533203125,0.453125,0.79638671875,16.05,28.349999999999998,49.949999999999996
0.12195121951219513,2.5,-0.06097560975609757,0.4658203125,0.45654296875,0.7998046875,16.65,29.4,50.85
1.5853658536585367,2.9268292682926833,-0.48780487804878053,0.45849609375,0.4521484375,0.7861328125,15.6,30.75,49.949999999999996
-0.6097560975609757,2.1341463414634148,0.30487804878048785,0.46728515625,0.45556640625,0.7900390625,16.95,31.2,48.3
0.5487804878048781,0.0,-2.1951219512195124,0.45654296875,0.4443359375,0.78515625,15.299999999999999,28.05,48.0
-3.231707317073171,0.5487804878048781,-0.7317073170731708,0.4697265625,0.439453125,0.80615234375,16.05,29.099999999999998,48.75
-0.30487804878048785,2.439024390243903,-0.3658536585365854,0.46630859375,0.4404296875,0.7958984375,17.099999999999998,29.099999999999998,49.949999999999996
0.853658536585366,-0.12195121951219513,-3.7195121951219514,0.4501953125,0.4404296875,0.8154296875,16.65,28.2,51.15
-1.5853658536585367,1.8902439024390245,1.0975609756097562,0.45751953125,0.44970703125,0.7861328125,15.899999999999999,29.4,50.85
0.9756097560975611,2.25609756097561,-0.12195121951219513,0.46240234375,0.45654296875,0.79248046875,16.349999999999998,28.799999999999997,49.199999999999996
1.6463414634146343,2.3170731707317076,-1.7682926829268295,0.45654296875,0.43359375,0.78955078125,16.349999999999998,28.799999999999997,50.55
2.6219512195121952,-0.6707317073170732,2.378048780487805,0.4521484375,0.4443359375,0.79248046875,15.899999999999999,30.9,49.65
1.7682926829268295,1.524390243902439,-0.3658536585365854,0.47607421875,0.43896484375,0.80615234375,16.2,30.15,49.35
0.0,0.12195121951219513,-1.9512195121951221,0.4599609375,0.435546875,0.79541015625,16.05,28.349999999999998,49.949999999999996
-1.0365853658536586,0.6707317073170732,0.1829268292682927,0.46240234375,0.43408203125,0.794921875,16.95,29.7,49.35
0.30487804878048785,4.085365853658537,-0.9146341463414634,0.46533203125,0.43505859375,0.79638671875,17.55,28.349999999999998,50.55
-0.853658536585366,-0.426829268292683,-1.0975609756097562,0.451171875,0.4404296875,0.79541015625,16.2,28.2,49.35
-4.2682926829268295,0.06097560975609757,0.24390243902439027,0.45556640625,0.44677734375,0.80322265625,16.349999999999998,28.799999999999997,49.5
2.5,1.829268292682927,-1.524390243902439,0.4521484375,0.4443359375,0.7880859375,17.55,28.349999999999998,49.949999999999996
-3.9024390243902443,0.426829268292683,-2.5,0.4453125,0.43212890625,0.80908203125,15.899999999999999,28.95,48.9
2.073170731707317,1.2804878048780488,0.06097560975609757,0.44775390625,0.4326171875,0.7890625,15.6,28.799999999999997,51.0
0.6097560975609757,2.25609756097561,0.5487804878048781,0.4609375,0.44189453125,0.794921875,16.95,29.7,50.4
-1.9512195121951221,2.25609756097561,0.0,0.45458984375,0.427734375,0.7900390625,16.8,27.599999999999998,48.75
1.4634146341463417,0.426829268292683,-0.12195121951219513,0.462890625,0.4462890625,0.8017578125,16.95,28.95,48.9
-0.1829268292682927,0.6097560975609757,1.1585365853658538,0.45947265625,0.42919921875,0.7841796875,18.3,29.549999999999997,50.55
-1.2804878048780488,1.1585365853658538,0.0,0.46435546875,0.44384765625,0.80517578125,16.2,30.9,50.1
0.6707317073170732,0.6707317073170732,1.2804878048780488,0.44189453125,0.4384765625,0.79833984375,17.55,29.099999999999998,49.949999999999996
1.6463414634146343,1.524390243902439,-1.2804878048780488,0.46044921875,0.4443359375,0.8017578125,16.2,28.95,51.449999999999996
-0.30487804878048785,1.9512195121951221,0.6707317073170732,0.4609375,0.45166015625,0.79443359375,16.95,27.75,50.1
0.06097560975609757,2.1951219512195124,0.6707317073170732,0.45361328125,0.43408203125,0.77978515625,16.65,28.2,50.1
2.073170731707317,0.5487804878048781,-0.1829268292682927,0.453125,0.44384765625,0.7880859375,15.6,30.299999999999997,50.25
-1.2195121951219514,1.524390243902439,0.9756097560975611,0.458984375,0.439453125,0.796875,15.299999999999999,29.849999999999998,50.55
2.439024390243903,0.9146341463414634,1.402439024390244,0.4423828125,0.45263671875,0.80078125,16.05,29.549999999999997,49.949999999999996
0.5487804878048781,1.7682926829268295,-0.7926829268292683,0.46240234375,0.4326171875,0.7958984375,16.95,29.7,50.4
0.24390243902439027,0.426829268292683,0.12195121951219513,0.43994140625,0.44580078125,0.79443359375,16.95,28.95,48.3
-0.1829268292682927,2.1341463414634148,1.5853658536585367,0.4697265625,0.43798828125,0.798828125,14.7,29.7,49.65
0.30487804878048785,1.0365853658536586,-0.9146341463414634,0.447265625,0.44140625,0.78271484375,16.8,29.549999999999997,50.25
-0.9756097560975611,2.5609756097560976,-1.5853658536585367,0.4521484375,0.44921875,0.7978515625,16.8,29.849999999999998,49.949999999999996
1.4634146341463417,0.5487804878048781,-0.7317073170731708,0.451171875,0.43603515625,0.78369140625,16.8,27.599999999999998,51.0
-0.48780487804878053,2.25609756097561,-1.2195121951219514,0.4482421875,0.44140625,0.7998046875,17.099999999999998,28.799999999999997,50.25
-1.5853658536585367,1.8902439024390245,-0.853658536585366,0.4541015625,0.43896484375,0.791015625,16.8,29.549999999999997,49.949999999999996
0.30487804878048785,2.1341463414634148,1.7682926829268295,0.4541015625,0.45263671875,0.8017578125,17.099999999999998,29.099999999999998,50.55
-3.414634146341464,2.9268292682926833,1.4634146341463417,0.4619140625,0.4462890625,0.80517578125,17.099999999999998,28.799999999999997,49.949999999999996
-0.5487804878048781,1.402439024390244,-0.7317073170731708,0.46337890625,0.4423828125,0.791015625,16.349999999999998,30.75,49.949999999999996
0.48780487804878053,1.0975609756097562,0.426829268292683,0.4541015625,0.4521484375,0.79345703125,18.45,29.4,49.35
2.5609756097560976,0.3658536585365854,-0.9146341463414634,0.4599609375,0.43798828125,0.80712890625,16.8,29.099999999999998,49.949999999999996
-0.7926829268292683,1.3414634146341464,-0.7317073170731708,0.462890625,0.44482421875,0.79443359375,17.099999999999998,28.349999999999998,49.949999999999996
1.3414634146341464,0.5487804878048781,-2.3170731707317076,0.4619140625,0.447265625,0.79248046875,17.099999999999998,28.05,48.75
-0.7317073170731708,1.4634146341463417,-1.7682926829268295,0.4541015625,0.45166015625,0.8037109375,16.8,30.75,49.949999999999996
-0.3658536585365854,2.6219512195121952,-2.7439024390243905,0.4638671875,0.43994140625,0.79638671875,15.45,29.7,50.1
-0.24390243902439027,0.24390243902439027,2.378048780487805,0.45263671875,0.44091796875,0.7998046875,17.099999999999998,29.549999999999997,49.949999999999996
0.24390243902439027,1.707317073170732,0.06097560975609757,0.451171875,0.46240234375,0.79150390625,17.55,28.799999999999997,49.199999999999996
0.9146341463414634,2.0121951219512195,-0.12195121951219513,0.45703125,0.44140625,0.79345703125,17.7,29.7,50.85
-1.8902439024390245,0.7317073170731708,0.9146341463414634,0.4482421875,0.44873046875,0.81494140625,16.95,29.7,48.9
0.3658536585365854,0.426829268292683,-1.707317073170732,0.455078125,0.443359375,0.794921875,15.299999999999999,28.349999999999998,48.449999999999996
1.9512195121951221,0.30487804878048785,-0.9756097560975611,0.462890625,0.4365234375,0.8046875,16.05,28.349999999999998,49.949999999999996
-0.48780487804878053,-2.5,0.853658536585366,0.4609375,0.4375,0.791015625,15.899999999999999,30.15,49.65
2.7439024390243905,-1.3414634146341464,-2.987804878048781,0.45703125,0.44384765625,0.79150390625,18.45,27.75,50.85
0.7317073170731708,0.12195121951219513,0.9756097560975611,0.4521484375,0.443359375,0.79443359375,15.899999999999999,28.2,50.1
0.5487804878048781,0.30487804878048785,-1.1585365853658538,0.46337890625,0.45751953125,0.798828125,16.95,29.4,50.1
-1.0975609756097562,1.7682926829268295,1.6463414634146343,0.462890625,0.45458984375,0.796875,16.2,30.15,49.35
1.0365853658536586,-1.524390243902439,-2.0121951219512195,0.44873046875,0.43603515625,0.79296875,15.899999999999999,28.65,48.6
-1.9512195121951221,1.5853658536585367,0.12195121951219513,0.4580078125,0.44677734375,0.79296875,16.65,28.95,49.65
-1.3414634146341464,3.780487804878049,-0.5487804878048781,0.4404296875,0.443359375,0.79052734375,16.05,28.799999999999997,49.5
1.9512195121951221,0.24390243902439027,-0.3658536585365854,0.458984375,0.44970703125,0.80712890625,17.099999999999998,29.099999999999998,49.199999999999996
1.0975609756097562,-0.6097560975609757,0.0,0.46728515625,0.44677734375,0.796875,15.899999999999999,29.7,50.4
1.707317073170732,0.0,-0.12195121951219513,0.45556640625,0.43798828125,0.8046875,16.05,29.549999999999997,49.199999999999996
-0.30487804878048785,1.829268292682927,-0.6707317073170732,0.455078125,0.44873046875,0.79638671875,16.05,29.099999999999998,48.449999999999996
-1.829268292682927,2.5609756097560976,-1.4634146341463417,0.45458984375,0.45751953125,0.79931640625,16.05,28.799999999999997,49.5
0.5487804878048781,0.853658536585366,-1.2804878048780488,0.45849609375,0.4423828125,0.7958984375,17.099999999999998,29.099999999999998,48.75
-2.25609756097561,1.0975609756097562,-0.9756097560975611,0.45654296875,0.43701171875,0.7939453125,16.95,30.45,50.85
-0.7317073170731708,2.25609756097561,-1.2195121951219514,0.4609375,0.4306640625,0.796875,18.3,28.799999999999997,49.199999999999996
-0.426829268292683,1.829268292682927,0.06097560975609757,0.4814453125,0.43701171875,0.79638671875,16.349999999999998,28.349999999999998,49.5
-0.06097560975609757,1.707317073170732,-3.780487804878049,0.44970703125,0.44482421875,0.7841796875,15.899999999999999,27.75,49.35
-1.3414634146341464,1.0975609756097562,-1.524390243902439,0.46630859375,0.4404296875,0.794921875,15.299999999999999,28.349999999999998,49.5
3.414634146341464,1.2804878048780488,0.853658536585366,0.4599609375,0.4443359375,0.79248046875,16.8,28.349999999999998,49.5
-1.8902439024390245,5.060975609756098,-1.7682926829268295,0.4658203125,0.43212890625,0.80517578125,16.349999999999998,28.349999999999998,50.55
0.7926829268292683,-0.1829268292682927,-0.30487804878048785,0.4521484375,0.43359375,0.78076171875,15.6,28.349999999999998,48.75
0.9146341463414634,0.3658536585365854,0.0,0.4560546875,0.43798828125,0.78759765625,16.2,30.15,48.9
-3.536585365853659,-0.06097560975609757,-4.146341463414634,0.462890625,0.43701171875,0.78466796875,16.2,29.4,50.1
0.48780487804878053,0.30487804878048785,-0.9756097560975611,0.45751953125,0.44921875,0.78662109375,16.349999999999998,29.849999999999998,48.75
-1.3414634146341464,2.6219512195121952,-0.9146341463414634,0.458984375,0.44287109375,0.80126953125,16.349999999999998,29.099999999999998,50.25
0.7926829268292683,1.524390243902439,0.6707317073170732,0.45263671875,0.42236328125,0.79296875,14.549999999999999,28.349999999999998,49.5
0.3658536585365854,1.0975609756097562,0.9756097560975611,0.462890625,0.43017578125,0.7900390625,16.8,28.799999999999997,49.949999999999996
3.658536585365854,0.48780487804878053,-0.30487804878048785,0.46337890625,0.43212890625,0.8046875,16.2,28.65,49.35
-0.6097560975609757,-0.7317073170731708,-0.426829268292683,0.44384765625,0.44873046875,0.79931640625,15.899999999999999,28.95,50.85
-0.9756097560975611,1.0975609756097562,1.524390243902439,0.46484375,0.44677734375,0.796875,14.85,29.099999999999998,51.0
2.5609756097560976,2.439024390243903,2.1341463414634148,0.47265625,0.43701171875,0.80126953125,17.4,28.95,48.9
-1.6463414634146343,-0.7926829268292683,1.524390243902439,0.462890625,0.43408203125,0.8017578125,17.4,29.4,48.9
2.378048780487805,2.7439024390243905,-0.3658536585365854,0.46484375,0.43994140625,0.796875,15.45,28.2,49.65
-1.0975609756097562,3.780487804878049,-0.30487804878048785,0.44775390625,0.435546875,0.78955078125,16.65,30.15,48.9
-1.1585365853658538,-1.3414634146341464,1.707317073170732,0.44677734375,0.45166015625,0.8037109375,15.6,28.799999999999997,50.25
1.2195121951219514,1.0365853658536586,1.5853658536585367,0.447265625,0.431640625,0.80126953125,15.6,29.849999999999998,51.0
-1.4634146341463417,0.7926829268292683,1.0975609756097562,0.453125,0.43603515625,0.8046875,16.8,29.849999999999998,50.55
0.6097560975609757,-0.9146341463414634,0.853658536585366,0.45654296875,0.42822265625,0.802734375,15.899999999999999,28.95,49.65
2.9268292682926833,0.7926829268292683,-1.5853658536585367,0.4638671875,0.4365234375,0.802734375,16.2,29.7,50.85
0.426829268292683,1.0975609756097562,-0.6707317073170732,0.46337890625,0.4501953125,0.80517578125,15.899999999999999,29.4,50.4
-1.2195121951219514,-0.12195121951219513,2.0121951219512195,0.4453125,0.43994140625,0.794921875,16.2,29.7,48.9
3.1097560975609757,0.6707317073170732,-1.4634146341463417,0.45654296875,0.4560546875,0.79736328125,16.65,28.65,49.65
0.1829268292682927,-0.30487804878048785,1.2804878048780488,0.453125,0.44677734375,0.79150390625,16.95,28.65,48.9
0.426829268292683,-0.426829268292683,-0.6097560975609757,0.44970703125,0.44921875,0.78173828125,17.55,29.549999999999997,49.199999999999996
-0.30487804878048785,-0.1829268292682927,-1.0975609756097562,0.4609375,0.44873046875,0.80419921875,17.4,28.2,50.1
0.06097560975609757,1.524390243902439,-2.0121951219512195,0.45263671875,0.443359375,0.8056640625,16.95,29.4,49.35
1.3414634146341464,1.524390243902439,-0.7926829268292683,0.4580078125,0.439453125,0.80029296875,16.65,28.95,49.65
-0.06097560975609757,0.7317073170731708,3.048780487804878,0.4501953125,0.43603515625,0.8037109375,16.349999999999998,28.05,48.75
2.378048780487805,1.524390243902439,1.4634146341463417,0.46337890625,0.44482421875,0.7783203125,16.05,30.299999999999997,49.949999999999996
-2.378048780487805,2.1951219512195124,2.1951219512195124,0.4560546875,0.43603515625,0.79150390625,16.05,29.549999999999997,49.5
0.3658536585365854,2.5609756097560976,-0.7926829268292683,0.45654296875,0.44775390625,0.7861328125,16.05,28.799999999999997,49.949999999999996
-0.06097560975609757,1.8902439024390245,1.1585365853658538,0.4619140625,0.4580078125,0.791015625,16.2,28.2,49.65
1.9512195121951221,1.707317073170732,-0.06097560975609757,0.4560546875,0.4375,0.80419921875,16.2,28.65,50.4
1.707317073170732,2.7439024390243905,0.6707317073170732,0.46728515625,0.447265625,0.798828125,16.05,30.299999999999997,49.5
0.7317073170731708,-1.402439024390244,0.0,0.46142578125,0.44677734375,0.8037109375,17.4,30.15,49.35
1.4634146341463417,1.6463414634146343,-2.1341463414634148,0.4619140625,0.451171875,0.794921875,16.05,29.099999999999998,51.3
-0.7926829268292683,1.524390243902439,1.7682926829268295,0.44091796875,0.4453125,0.78955078125,16.2,30.15,49.35
-1.2195121951219514,2.25609756097561,0.24390243902439027,0.45947265625,0.4443359375,0.7958984375,17.099999999999998,28.349999999999998,50.25
-0.6097560975609757,-0.30487804878048785,-1.1585365853658538,0.45556640625,0.42431640625,0.7919921875,16.8,28.349999999999998,49.949999999999996
-1.0975609756097562,2.378048780487805,0.06097560975609757,0.46923828125,0.43994140625,0.7900390625,17.55,30.299999999999997,49.199999999999996
0.06097560975609757,2.3170731707317076,-2.682926829268293,0.44873046875,0.44580078125,0.80029296875,16.65,28.65,49.35
0.06097560975609757,1.1585365853658538,-1.707317073170732,0.4560546875,0.44140625,0.796875,16.65,28.2,49.65
0.48780487804878053,-0.30487804878048785,0.12195121951219513,0.45458984375,0.43310546875,0.78662109375,16.05,29.099999999999998,50.55
0.0,2.1951219512195124,-1.6463414634146343,0.46533203125,0.443359375,0.78857421875,16.05,29.099999999999998,48.75
0.7317073170731708,0.1829268292682927,0.48780487804878053,0.46435546875,0.4423828125,0.79833984375,16.65,29.4,49.35
1.6463414634146343,-0.12195121951219513,1.8902439024390245,0.46337890625,0.4423828125,0.79736328125,16.95,28.95,51.15
-1.0365853658536586,2.439024390243903,-2.1951219512195124,0.447265625,0.43798828125,0.7900390625,16.8,28.799999999999997,49.949999999999996
1.7682926829268295,-0.1829268292682927,0.12195121951219513,0.4453125,0.43994140625,0.791015625,16.95,29.4,50.1
-2.073170731707317,1.829268292682927,-1.0365853658536586,0.46337890625,0.44482421875,0.80859375,16.349999999999998,29.549999999999997,49.199999999999996
0.48780487804878053,0.5487804878048781,0.6097560975609757,0.455078125,0.443359375,0.79833984375,16.2,29.4,48.9
-0.6707317073170732,0.30487804878048785,0.24390243902439027,0.47216796875,0.44091796875,0.798828125,15.6,28.799999999999997,47.699999999999996
0.1829268292682927,1.8902439024390245,1.402439024390244,0.44677734375,0.42724609375,0.78564453125,17.4,29.4,49.35
1.7682926829268295,2.3170731707317076,-0.12195121951219513,0.46533203125,0.447265625,0.8076171875,16.2,28.95,50.1
0.24390243902439027,0.7317073170731708,-1.7682926829268295,0.470703125,0.4248046875,0.79248046875,17.099999999999998,29.099999999999998,50.25
1.4634146341463417,0.9756097560975611,1.4634146341463417,0.4375,0.4453125,0.79833984375,16.349999999999998,28.349999999999998,48.75
1.5853658536585367,-0.7926829268292683,1.0975609756097562,0.45947265625,0.44970703125,0.78564453125,17.099999999999998,28.05,50.55
0.853658536585366,0.426829268292683,-0.5487804878048781,0.4697265625,0.44921875,0.79296875,17.849999999999998,28.05,50.25
-3.8414634146341466,0.9146341463414634,-0.3658536585365854,0.4560546875,0.4423828125,0.78662109375,16.8,28.799999999999997,48.0
2.682926829268293,1.5853658536585367,1.1585365853658538,0.43701171875,0.44677734375,0.79833984375,16.65,29.4,50.4
-2.987804878048781,2.378048780487805,-0.3658536585365854,0.4697265625,0.4375,0.80908203125,17.099999999999998,29.099999999999998,51.0
0.48780487804878053,0.853658536585366,1.2195121951219514,0.4677734375,0.4501953125,0.80029296875,16.05,29.099999999999998,49.949999999999996
0.5487804878048781,0.6707317073170732,-2.3170731707317076,0.43896484375,0.45166015625,0.79833984375,17.7,29.4,48.9
0.6707317073170732,-0.1829268292682927,3.9024390243902443,0.4599609375,0.4375,0.80126953125,15.899999999999999,27.75,49.65
1.5853658536585367,0.853658536585366,1.2195121951219514,0.45263671875,0.4501953125,0.79345703125,16.349999999999998,28.799999999999997,48.75
1.707317073170732,0.48780487804878053,-1.1585365853658538,0.4619140625,0.44091796875,0.79150390625,15.149999999999999,29.7,49.65
0.6707317073170732,2.1341463414634148,-1.4634146341463417,0.47021484375,0.4462890625,0.798828125,16.95,28.65,48.6
-2.1341463414634148,3.4756097560975614,-0.426829268292683,0.4521484375,0.42626953125,0.7841796875,17.4,28.2,49.65
2.6219512195121952,0.7317073170731708,0.0,0.455078125,0.4453125,0.7939453125,15.299999999999999,28.799999999999997,49.5
-1.1585365853658538,-0.1829268292682927,-0.48780487804878053,0.4619140625,0.4423828125,0.78857421875,16.349999999999998,30.75,49.5
0.9756097560975611,1.5853658536585367,3.048780487804878,0.4697265625,0.44384765625,0.7998046875,16.349999999999998,29.099999999999998,50.25
2.6219512195121952,2.25609756097561,-0.9146341463414634,0.4521484375,0.44287109375,0.79931640625,15.899999999999999,28.95,50.1
1.0365853658536586,1.4634146341463417,-2.439024390243903,0.4619140625,0.45263671875,0.7939453125,16.65,30.45,49.65
2.1951219512195124,0.9756097560975611,-0.30487804878048785,0.44921875,0.44482421875,0.7939453125,16.349999999999998,28.349999999999998,49.949999999999996
-1.0365853658536586,2.5609756097560976,-0.48780487804878053,0.4658203125,0.44970703125,0.80322265625,17.849999999999998,29.099999999999998,49.949999999999996
-1.0975609756097562,3.1097560975609757,0.0,0.47705078125,0.4453125,0.79736328125,16.05,28.349999999999998,51.0
0.24390243902439027,3.414634146341464,1.524390243902439,0.4609375,0.4345703125,0.7890625,16.65,29.7,50.4
0.9146341463414634,1.2804878048780488,-0.426829268292683,0.45751953125,0.4423828125,0.798828125,16.65,27.75,48.9
-0.1829268292682927,2.9268292682926833,1.524390243902439,0.462890625,0.4345703125,0.791015625,17.4,28.2,48.9
0.9756097560975611,0.5487804878048781,-0.6097560975609757,0.45068359375,0.44384765625,0.7890625,16.8,29.549999999999997,48.75
-1.5853658536585367,3.2926829268292686,1.0365853658536586,0.4560546875,0.45166015625,0.79443359375,16.8,28.349999999999998,49.199999999999996
0.7317073170731708,2.378048780487805,-0.48780487804878053,0.45947265625,0.4326171875,0.7919921875,16.05,28.349999999999998,49.199999999999996
0.9146341463414634,1.8902439024390245,-0.6707317073170732,0.4638671875,0.455078125,0.7900390625,17.099999999999998,30.75,50.25
-1.4634146341463417,2.25609756097561,0.24390243902439027,0.47119140625,0.44384765625,0.78173828125,16.2,29.4,50.1
1.707317073170732,0.30487804878048785,-0.7317073170731708,0.4521484375,0.43701171875,0.80029296875,16.95,28.95,50.4
-2.25609756097561,-0.12195121951219513,-0.30487804878048785,0.46142578125,0.4501953125,0.8056640625,15.299999999999999,29.099999999999998,50.25
-2.3170731707317076,0.3658536585365854,-0.1829268292682927,0.4541015625,0.4521484375,0.806640625,15.45,29.4,51.15
1.3414634146341464,3.2926829268292686,-2.804878048780488,0.44482421875,0.44873046875,0.8076171875,16.2,29.4,50.1
-2.3170731707317076,0.6707317073170732,-0.426829268292683,0.45947265625,0.4365234375,0.8046875,18.3,29.549999999999997,50.25
0.853658536585366,0.7926829268292683,1.5853658536585367,0.44970703125,0.421875,0.806640625,15.45,29.7,50.85
0.5487804878048781,2.6219512195121952,-0.6097560975609757,0.46337890625,0.44970703125,0.79150390625,15.45,26.7,48.9
0.9756097560975611,1.5853658536585367,0.3658536585365854,0.451171875,0.45458984375,0.79931640625,17.099999999999998,28.05,50.25
-0.30487804878048785,-1.2804878048780488,-1.9512195121951221,0.44970703125,0.45263671875,0.79052734375,16.8,29.099999999999998,51.0
1.6463414634146343,1.707317073170732,-1.707317073170732,0.45947265625,0.45556640625,0.787109375,17.099999999999998,28.349999999999998,48.449999999999996
-2.1341463414634148,2.3170731707317076,0.426829268292683,0.45947265625,0.4326171875,0.7890625,17.55,28.349999999999998,49.5
-0.6097560975609757,3.5975609756097566,1.1585365853658538,0.45703125,0.44677734375,0.8017578125,16.2,28.95,49.35
1.2195121951219514,-0.06097560975609757,-2.1341463414634148,0.4423828125,0.44140625,0.7998046875,16.95,28.95,49.35
-1.524390243902439,2.1951219512195124,-1.524390243902439,0.455078125,0.43359375,0.79931640625,16.65,28.2,50.1
2.1341463414634148,3.9024390243902443,-1.0975609756097562,0.44287109375,0.43603515625,0.80029296875,16.8,29.549999999999997,49.5
0.7926829268292683,-1.4634146341463417,-1.2195121951219514,0.4501953125,0.44580078125,0.80126953125,17.55,29.549999999999997,49.5
1.5853658536585367,1.2195121951219514,1.0975609756097562,0.46142578125,0.45654296875,0.794921875,16.05,30.299999999999997,48.75
0.9756097560975611,1.4634146341463417,0.9756097560975611,0.46728515625,0.44287109375,0.791015625,16.65,28.65,50.85
2.804878048780488,1.2195121951219514,-1.4634146341463417,0.4619140625,0.4462890625,0.794921875,15.899999999999999,28.2,50.1
-1.9512195121951221,-1.402439024390244,-0.6097560975609757,0.46044921875,0.44140625,0.79833984375,17.4,28.2,50.4
-2.0121951219512195,2.073170731707317,1.6463414634146343,0.46240234375,0.45703125,0.796875,17.4,29.7,50.4
-2.6219512195121952,2.439024390243903,0.9146341463414634,0.46875,0.431640625,0.81298828125,16.2,29.7,50.4
-1.4634146341463417,1.2195121951219514,-1.0975609756097562,0.4541015625,0.4482421875,0.78857421875,16.05,27.599999999999998,48.449999999999996
1.4634146341463417,2.5,-1.402439024390244,0.4619140625,0.4443359375,0.7861328125,15.6,30.75,48.0
0.30487804878048785,1.3414634146341464,0.853658536585366,0.4658203125,0.44140625,0.79833984375,16.8,29.099999999999998,50.55
1.829268292682927,1.5853658536585367,2.1951219512195124,0.45947265625,0.43701171875,0.7861328125,16.349999999999998,28.349999999999998,49.199999999999996
3.5975609756097566,2.0121951219512195,0.6707317073170732,0.4541015625,0.45263671875,0.80908203125,15.45,28.2,49.65
1.4634146341463417,1.6463414634146343,0.6097560975609757,0.4482421875,0.4462890625,0.78125,18.45,28.95,50.4
0.6707317073170732,2.1951219512195124,-0.48780487804878053,0.4619140625,0.43505859375,0.78759765625,15.899999999999999,27.75,49.65
-0.12195121951219513,1.707317073170732,1.5853658536585367,0.447265625,0.44140625,0.80029296875,17.099999999999998,29.849999999999998,50.85
0.12195121951219513,-0.12195121951219513,1.3414634146341464,0.45703125,0.45263671875,0.79833984375,16.65,29.4,51.15
-0.1829268292682927,1.2804878048780488,1.2195121951219514,0.46240234375,0.4384765625,0.791015625,17.849999999999998,29.549999999999997,50.55
0.9756097560975611,4.024390243902439,0.48780487804878053,0.45703125,0.44287109375,0.79150390625,15.149999999999999,29.4,49.65
0.7317073170731708,1.6463414634146343,-1.402439024390244,0.4638671875,0.43896484375,0.798828125,15.45,30.15,49.35
1.6463414634146343,-0.30487804878048785,1.4634146341463417,0.4521484375,0.44482421875,0.80126953125,16.2,28.2,48.6
0.9146341463414634,0.48780487804878053,0.12195121951219513,0.4501953125,0.451171875,0.8017578125,17.55,28.799999999999997,50.25
-2.5,2.5,-0.48780487804878053,0.46044921875,0.431640625,0.7900390625,16.95,29.4,50.85
3.414634146341464,0.6707317073170732,-2.9268292682926833,0.4609375,0.43994140625,0.7890625,16.95,29.4,50.85
-1.402439024390244,1.7682926829268295,2.378048780487805,0.455078125,0.4453125,0.7900390625,15.6,29.849999999999998,49.949999999999996
0.9146341463414634,1.7682926829268295,0.06097560975609757,0.4541015625,0.4462890625,0.796875,16.05,28.799999999999997,49.5
-2.5609756097560976,2.1341463414634148,0.426829268292683,0.44970703125,0.4453125,0.79833984375,16.8,28.799999999999997,49.949999999999996
-3.7195121951219514,0.48780487804878053,0.0,0.45166015625,0.447265625,0.79541015625,17.849999999999998,28.799999999999997,50.25
-0.6707317073170732,1.829268292682927,-2.378048780487805,0.45556640625,0.455078125,0.79541015625,17.7,28.65,50.1
2.1951219512195124,0.06097560975609757,-0.853658536585366,0.4638671875,0.439453125,0.79345703125,16.05,28.349999999999998,50.25
0.06097560975609757,2.6219512195121952,-0.06097560975609757,0.46630859375,0.43603515625,0.80322265625,16.8,28.349999999999998,49.199999999999996
0.1829268292682927,0.30487804878048785,-1.402439024390244,0.4580078125,0.45166015625,0.79541015625,15.6,29.099999999999998,49.199999999999996
1.402439024390244,2.9268292682926833,0.5487804878048781,0.4619140625,0.44580078125,0.7890625,16.349999999999998,29.099999999999998,49.5
-1.707317073170732,-0.12195121951219513,-0.9756097560975611,0.458984375,0.44140625,0.79443359375,16.8,29.099999999999998,50.25
-0.24390243902439027,0.7317073170731708,-0.3658536585365854,0.455078125,0.44775390625,0.7900390625,16.95,28.95,50.4
0.30487804878048785,-0.48780487804878053,-1.3414634146341464,0.4677734375,0.44189453125,0.79541015625,15.899999999999999,29.7,50.1
-2.073170731707317,-0.9146341463414634,-0.5487804878048781,0.46337890625,0.4365234375,0.8046875,16.95,29.7,50.4
1.7682926829268295,-0.1829268292682927,0.3658536585365854,0.4619140625,0.43359375,0.7978515625,15.899999999999999,28.2,50.4
-1.4634146341463417,2.073170731707317,-2.1341463414634148,0.44873046875,0.4462890625,0.7900390625,16.05,29.099999999999998,49.5
0.9756097560975611,3.231707317073171,0.0,0.458984375,0.45263671875,0.80322265625,16.2,28.65,50.85
1.0975609756097562,2.3170731707317076,-0.30487804878048785,0.45166015625,0.443359375,0.81201171875,16.8,29.549999999999997,49.949999999999996
1.1585365853658538,1.2804878048780488,-0.9146341463414634,0.44970703125,0.439453125,0.79638671875,17.099999999999998,28.799999999999997,49.199999999999996
1.0365853658536586,1.4634146341463417,1.3414634146341464,0.4599609375,0.44873046875,0.8017578125,15.6,29.099999999999998,49.949999999999996
0.7317073170731708,1.9512195121951221,-0.30487804878048785,0.46044921875,0.45458984375,0.79638671875,16.8,29.099999999999998,50.55
-3.1707317073170733,1.9512195121951221,0.426829268292683,0.4501953125,0.44091796875,0.79150390625,16.95,27.75,49.65
-1.0365853658536586,1.402439024390244,-0.7926829268292683,0.44775390625,0.4375,0.79638671875,15.299999999999999,29.549999999999997,48.75
2.3170731707317076,0.1829268292682927,-0.1829268292682927,0.45849609375,0.44775390625,0.7978515625,15.6,28.799999999999997,48.449999999999996
-0.5487804878048781,-1.1585365853658538,-1.1585365853658538,0.45703125,0.42724609375,0.7919921875,17.099999999999998,28.799999999999997,49.949999999999996
0.853658536585366,-0.12195121951219513,0.853658536585366,0.46728515625,0.44970703125,0.81005859375,16.2,29.7,50.1
1.4634146341463417,1.402439024390244,0.0,0.4658203125,0.45849609375,0.81103515625,15.149999999999999,29.7,50.1
0.12195121951219513,0.48780487804878053,1.5853658536585367,0.4599609375,0.4423828125,0.7978515625,16.65,28.95,50.1
-0.06097560975609757,1.524390243902439,1.829268292682927,0.46484375,0.44482421875,0.7998046875,17.099999999999998,29.549999999999997,50.25
1.8902439024390245,0.3658536585365854,-0.853658536585366,0.46533203125,0.45068359375,0.80322265625,15.149999999999999,28.65,48.9
-0.24390243902439027,0.9756097560975611,1.8902439024390245,0.44677734375,0.4384765625,0.794921875,17.4,29.4,48.9
-2.439024390243903,2.5,1.1585365853658538,0.45556640625,0.44482421875,0.78955078125,16.8,29.849999999999998,49.199999999999996
-0.24390243902439027,1.0975609756097562,1.4634146341463417,0.47265625,0.44140625,0.79931640625,16.349999999999998,27.599999999999998,50.55
-2.073170731707317,0.3658536585365854,-1.707317073170732,0.4560546875,0.4541015625,0.79150390625,16.65,27.75,49.65
-0.6097560975609757,-0.1829268292682927,-0.24390243902439027,0.4697265625,0.4453125,0.798828125,16.65,28.2,48.9
-1.0975609756097562,0.6097560975609757,0.0,0.45166015625,0.439453125,0.802734375,16.95,28.95,48.9
0.7926829268292683,1.9512195121951221,1.2804878048780488,0.4560546875,0.46240234375,0.7998046875,16.8,29.099999999999998,48.449999999999996
1.2195121951219514,2.5,1.2804878048780488,0.45556640625,0.4521484375,0.80615234375,16.65,30.45,49.35
1.707317073170732,-0.426829268292683,1.2195121951219514,0.458984375,0.44482421875,0.79638671875,17.4,29.4,50.4
-0.5487804878048781,0.426829268292683,-0.24390243902439027,0.4541015625,0.44775390625,0.79296875,17.4,29.7,48.9
-0.7317073170731708,0.7317073170731708,-1.4634146341463417,0.46728515625,0.44482421875,0.79296875,16.95,28.2,48.9
1.3414634146341464,2.0121951219512195,0.12195121951219513,0.4609375,0.44921875,0.80712890625,16.2,29.4,49.65
-0.30487804878048785,-0.06097560975609757,-1.7682926829268295,0.455078125,0.44091796875,0.7841796875,16.65,29.7,48.9
0.7317073170731708,-0.30487804878048785,-0.6097560975609757,0.45751953125,0.43603515625,0.8037109375,15.899999999999999,29.7,49.35
-0.853658536585366,0.7926829268292683,0.1829268292682927,0.4599609375,0.43603515625,0.80126953125,17.849999999999998,28.799999999999997,49.199999999999996
2.378048780487805,0.5487804878048781,-0.3658536585365854,0.45654296875,0.43798828125,0.7978515625,15.899999999999999,28.65,49.35
-0.6707317073170732,-0.06097560975609757,-2.25609756097561,0.45556640625,0.431640625,0.7919921875,17.55,29.849999999999998,49.5
1.829268292682927,1.4634146341463417,0.1829268292682927,0.44970703125,0.4365234375,0.78955078125,16.2,28.95,50.4
-0.06097560975609757,-0.853658536585366,-1.8902439024390245,0.46923828125,0.44873046875,0.80078125,16.65,28.95,49.65
-0.9756097560975611,3.5975609756097566,1.5853658536585367,0.4423828125,0.44384765625,0.78955078125,17.099999999999998,28.799999999999997,49.5
-1.402439024390244,2.073170731707317,-0.426829268292683,0.4609375,0.447265625,0.79736328125,16.8,29.549999999999997,48.449999999999996
0.30487804878048785,1.707317073170732,-3.1707317073170733,0.46923828125,0.44384765625,0.7998046875,15.299999999999999,29.099999999999998,49.5
-0.1829268292682927,2.073170731707317,-1.6463414634146343,0.45166015625,0.44775390625,0.80078125,15.6,29.549999999999997,49.199999999999996
0.12195121951219513,1.0365853658536586,-2.073170731707317,0.451171875,0.4375,0.79345703125,17.4,28.2,50.1
3.658536585365854,1.8902439024390245,1.0975609756097562,0.46484375,0.44921875,0.7841796875,16.95,30.15,50.1
1.5853658536585367,0.7926829268292683,-0.06097560975609757,0.45361328125,0.43505859375,0.79638671875,15.6,28.349999999999998,49.949999999999996
4.024390243902439,0.48780487804878053,1.2195121951219514,0.466796875,0.4375,0.79443359375,16.2,28.95,48.3
-0.853658536585366,-0.24390243902439027,-0.426829268292683,0.46826171875,0.44140625,0.79443359375,16.65,27.75,48.9
-1.2195121951219514,2.439024390243903,-0.06097560975609757,0.4677734375,0.451171875,0.7880859375,16.8,28.799999999999997,49.5
-0.06097560975609757,1.4634146341463417,2.682926829268293,0.453125,0.43408203125,0.79052734375,16.05,28.349999999999998,50.25
-1.8902439024390245,2.1951219512195124,-0.24390243902439027,0.45458984375,0.443359375,0.80224609375,16.95,28.95,50.1
0.0,0.853658536585366,-0.426829268292683,0.4521484375,0.43896484375,0.79248046875,16.65,30.45,48.6
0.24390243902439027,2.378048780487805,0.9146341463414634,0.46435546875,0.4326171875,0.79541015625,17.4,28.95,49.35
0.06097560975609757,0.24390243902439027,-0.6707317073170732,0.4599609375,0.4580078125,0.80419921875,16.349999999999998,29.099999999999998,49.5
-1.9512195121951221,2.8658536585365857,-1.0365853658536586,0.4619140625,0.44677734375,0.791015625,16.65,28.349999999999998,48.75
2.6219512195121952,1.5853658536585367,1.0365853658536586,0.44921875,0.44677734375,0.79345703125,16.2,30.9,48.6
1.707317073170732,-1.4634146341463417,-0.7317073170731708,0.46728515625,0.4521484375,0.79638671875,16.05,29.849999999999998,49.199999999999996
-0.7926829268292683,2.987804878048781,-0.24390243902439027,0.45361328125,0.44189453125,0.79296875,16.05,29.099999999999998,49.199999999999996
1.8902439024390245,1.0975609756097562,-0.5487804878048781,0.4521484375,0.435546875,0.79345703125,16.65,29.7,49.65
-1.402439024390244,-0.7317073170731708,0.426829268292683,0.46435546875,0.44921875,0.80078125,16.05,29.549999999999997,50.25
0.3658536585365854,2.439024390243903,-0.48780487804878053,0.4599609375,0.4404296875,0.80419921875,14.7,28.95,50.1
-1.5853658536585367,4.634146341463415,-0.7317073170731708,0.4599609375,0.447265625,0.787109375,17.099999999999998,29.849999999999998,49.5
-0.24390243902439027,1.6463414634146343,-0.12195121951219513,0.46142578125,0.44384765625,0.78955078125,16.95,28.95,49.65
1.5853658536585367,1.2195121951219514,0.7317073170731708,0.45849609375,0.44287109375,0.79345703125,17.55,29.549999999999997,49.199999999999996
-0.12195121951219513,2.1341463414634148,-0.7926829268292683,0.4638671875,0.44970703125,0.7900390625,16.05,28.799999999999997,50.25
1.0365853658536586,1.1585365853658538,0.06097560975609757,0.458984375,0.44580078125,0.7958984375,15.899999999999999,28.65,48.9
-1.402439024390244,1.8902439024390245,-1.7682926829268295,0.45361328125,0.458984375,0.7958984375,16.8,30.75,50.25
1.3414634146341464,1.2804878048780488,-2.1951219512195124,0.45361328125,0.447265625,0.796875,16.65,28.95,50.1
-2.9268292682926833,2.25609756097561,0.24390243902439027,0.44580078125,0.44140625,0.802734375,16.65,28.65,49.65
1.9512195121951221,-0.1829268292682927,-0.12195121951219513,0.458984375,0.4462890625,0.79052734375,17.4,29.4,49.65
-1.0365853658536586,-0.30487804878048785,1.5853658536585367,0.46240234375,0.43310546875,0.7978515625,17.099999999999998,28.05,50.25
1.1585365853658538,1.1585365853658538,0.853658536585366,0.46923828125,0.45458984375,0.78369140625,17.4,28.95,49.65
0.9756097560975611,2.1341463414634148,-0.5487804878048781,0.4541015625,0.43310546875,0.79296875,15.899999999999999,28.95,49.65
-1.1585365853658538,-0.426829268292683,3.658536585365854,0.46044921875,0.4462890625,0.80029296875,17.099999999999998,30.75,50.1
0.0,1.4634146341463417,1.8902439024390245,0.45654296875,0.44287109375,0.78564453125,15.899999999999999,29.7,49.35
1.524390243902439,0.853658536585366,1.1585365853658538,0.4638671875,0.43310546875,0.794921875,16.8,29.549999999999997,49.199999999999996
-0.30487804878048785,0.24390243902439027,-0.24390243902439027,0.46826171875,0.4423828125,0.80517578125,15.899999999999999,28.2,49.65
-0.48780487804878053,2.9268292682926833,2.5609756097560976,0.4560546875,0.45947265625,0.7890625,15.299999999999999,29.549999999999997,48.449999999999996
0.7926829268292683,0.1829268292682927,-0.7926829268292683,0.43994140625,0.4326171875,0.79736328125,16.05,29.849999999999998,49.5
-1.0365853658536586,2.5609756097560976,2.25609756097561,0.47216796875,0.447265625,0.7939453125,14.7,30.45,49.65
3.1097560975609757,0.1829268292682927,2.073170731707317,0.4599609375,0.44775390625,0.7861328125,14.85,28.349999999999998,49.949999999999996
-0.24390243902439027,3.8414634146341466,-1.0365853658536586,0.46484375,0.44482421875,0.796875,18.599999999999998,28.349999999999998,50.25
-2.5609756097560976,3.231707317073171,-1.9512195121951221,0.46142578125,0.4423828125,0.794921875,16.65,28.65,49.35
1.829268292682927,1.6463414634146343,-0.853658536585366,0.4619140625,0.4384765625,0.79345703125,16.349999999999998,29.549999999999997,50.55
-0.1829268292682927,0.6097560975609757,0.7926829268292683,0.458984375,0.4443359375,0.7958984375,17.55,29.099999999999998,50.55
1.9512195121951221,0.5487804878048781,0.1829268292682927,0.44873046875,0.44775390625,0.79443359375,16.2,28.65,50.1
-0.30487804878048785,-0.12195121951219513,-0.48780487804878053,0.4560546875,0.45703125,0.798828125,17.099999999999998,29.849999999999998,48.449999999999996
-1.829268292682927,1.8902439024390245,1.3414634146341464,0.455078125,0.43408203125,0.796875,17.099999999999998,29.099999999999998,48.449999999999996
-1.829268292682927,1.1585365853658538,-0.853658536585366,0.45654296875,0.43896484375,0.79638671875,17.55,28.349999999999998,50.25
0.5487804878048781,0.3658536585365854,-0.1829268292682927,0.45556640625,0.4326171875,0.80615234375,16.05,28.799999999999997,49.949999999999996
-0.1829268292682927,-0.24390243902439027,-0.5487804878048781,0.458984375,0.4384765625,0.80859375,16.8,29.849999999999998,48.75
-1.2804878048780488,0.853658536585366,0.06097560975609757,0.4609375,0.44873046875,0.80126953125,16.2,30.15,50.1
3.9024390243902443,-0.1829268292682927,0.6707317073170732,0.46044921875,0.4375,0.787109375,15.899999999999999,28.95,49.35
-0.9146341463414634,-0.3658536585365854,0.5487804878048781,0.455078125,0.45263671875,0.79248046875,16.05,29.099999999999998,48.449999999999996
1.4634146341463417,1.0365853658536586,0.1829268292682927,0.45361328125,0.447265625,0.78759765625,17.7,27.75,50.4
-1.8902439024390245,2.1341463414634148,-0.24390243902439027,0.45947265625,0.45068359375,0.8017578125,15.45,28.95,49.35
-1.6463414634146343,-0.9146341463414634,0.7926829268292683,0.4638671875,0.43701171875,0.80615234375,17.4,29.7,49.65
0.24390243902439027,1.2804878048780488,2.0121951219512195,0.45703125,0.45068359375,0.79736328125,17.7,28.65,48.9
0.12195121951219513,1.524390243902439,0.1829268292682927,0.462890625,0.4453125,0.806640625,16.349999999999998,28.349999999999998,49.199999999999996
-1.9512195121951221,-0.7926829268292683,-0.6097560975609757,0.45703125,0.45068359375,0.80224609375,16.349999999999998,27.599999999999998,48.449999999999996
0.0,0.7926829268292683,-0.7317073170731708,0.478515625,0.45166015625,0.80615234375,17.849999999999998,29.549999999999997,49.949999999999996
-1.3414634146341464,-0.3658536585365854,-2.804878048780488,0.45654296875,0.4375,0.8017578125,16.349999999999998,29.099999999999998,49.199999999999996
